File: Ex Situ XRD/STF5 Pristine.txt
         ID:

    Comment:

Scan Type: Normal
Start Angle: 15 deg.
Stop Angle: 90 deg.
Num Points: 3751
Step Size: 0.02 deg.
Datafile Res: 1600
Scan Rate: 1.000000
Scan Mode: Continuous
Wavelength: 1.540562

Diffractometer Optics:
		Detector:
			 Type: Fixed Slits
			 X2 Configuration: No
		Tube:
			 Type: Fixed Slits
			 X2 Configuration: No

Axis[0]
	 Selected   : no
	 Iterative  : no
	 Start Angle: 0.000000
	 Stop Angle : 0.000000
	 Step Size  : 0.000000
	 Oscillating: no

Axis[1]
	 Selected   : no
	 Iterative  : no
	 Start Angle: 0.000000
	 Stop Angle : 0.000000
	 Step Size  : 0.000000
	 Oscillating: no

Axis[2]
	 Selected   : no
	 Iterative  : no
	 Start Angle: 0.000000
	 Stop Angle : 0.000000
	 Step Size  : 0.000000
	 Oscillating: no

Axis[3]
	 Selected   : no
	 Iterative  : no
	 Start Angle: 0.000000
	 Stop Angle : 0.000000
	 Step Size  : 0.000000
	 Oscillating: no

Axis[4]
	 Selected   : no
	 Iterative  : no
	 Start Angle: 0.000000
	 Stop Angle : 0.000000
	 Step Size  : 0.000000
	 Oscillating: no

Axis[5]
	 Selected   : no
	 Iterative  : no
	 Start Angle: 0.000000
	 Stop Angle : 0.000000
	 Step Size  : 0.000000
	 Oscillating: no

Axis[6]
	 Selected   : no
	 Iterative  : no
	 Start Angle: 0.000000
	 Stop Angle : 0.000000
	 Step Size  : 0.000000
	 Oscillating: no

Axis[7]
	 Selected   : no
	 Iterative  : no
	 Start Angle: 0.000000
	 Stop Angle : 0.000000
	 Step Size  : 0.000000
	 Oscillating: no

Axis[8]
	 Selected   : no
	 Iterative  : no
	 Start Angle: 0.000000
	 Stop Angle : 0.000000
	 Step Size  : 0.000000
	 Oscillating: no

Axis[9]
	 Selected   : no
	 Iterative  : no
	 Start Angle: 0.000000
	 Stop Angle : 0.000000
	 Step Size  : 0.000000
	 Oscillating: no

	   Deg.    Counts 	   Time 	    ESD

Range 0
  15.000	       123	    1200	    11.091
  15.080	       124	    1200	    11.136
  15.160	       118	    1200	    10.863
  15.240	       124	    1200	    11.136
  15.320	       109	    1200	    10.440
  15.400	       109	    1200	    10.440
  15.480	       121	    1200	    11.000
  15.560	       114	    1200	    10.677
  15.640	       116	    1200	    10.770
  15.720	       108	    1200	    10.392
  15.800	       124	    1200	    11.136
  15.880	       138	    1200	    11.747
  15.960	       131	    1200	    11.446
  16.040	       128	    1200	    11.314
  16.120	       105	    1200	    10.247
  16.200	       113	    1200	    10.630
  16.280	       104	    1200	    10.198
  16.360	       116	    1200	    10.770
  16.440	       116	    1200	    10.770
  16.520	       129	    1200	    11.358
  16.600	       116	    1200	    10.770
  16.680	       120	    1200	    10.954
  16.760	       106	    1200	    10.296
  16.840	       128	    1200	    11.314
  16.920	       116	    1200	    10.770
  17.000	       111	    1200	    10.536
  17.080	       114	    1200	    10.677
  17.160	       129	    1200	    11.358
  17.240	       113	    1200	    10.630
  17.320	        92	    1200	     9.592
  17.400	       113	    1200	    10.630
  17.480	       122	    1200	    11.045
  17.560	       115	    1200	    10.724
  17.640	        97	    1200	     9.849
  17.720	        87	    1200	     9.327
  17.800	       116	    1200	    10.770
  17.880	       128	    1200	    11.314
  17.960	        98	    1200	     9.899
  18.040	       125	    1200	    11.180
  18.120	       113	    1200	    10.630
  18.200	        95	    1200	     9.747
  18.280	       125	    1200	    11.180
  18.360	       104	    1200	    10.198
  18.440	       116	    1200	    10.770
  18.520	        98	    1200	     9.899
  18.600	       112	    1200	    10.583
  18.680	       107	    1200	    10.344
  18.760	       121	    1200	    11.000
  18.840	       114	    1200	    10.677
  18.920	       103	    1200	    10.149
  19.000	       113	    1200	    10.630
  19.080	       111	    1200	    10.536
  19.160	       110	    1200	    10.488
  19.240	       123	    1200	    11.091
  19.320	        98	    1200	     9.899
  19.400	        97	    1200	     9.849
  19.480	       115	    1200	    10.724
  19.560	       119	    1200	    10.909
  19.640	       110	    1200	    10.488
  19.720	       118	    1200	    10.863
  19.800	       108	    1200	    10.392
  19.880	       101	    1200	    10.050
  19.960	       124	    1200	    11.136
  20.040	       108	    1200	    10.392
  20.120	       110	    1200	    10.488
  20.200	       111	    1200	    10.536
  20.280	       107	    1200	    10.344
  20.360	       125	    1200	    11.180
  20.440	       109	    1200	    10.440
  20.520	        96	    1200	     9.798
  20.600	       106	    1200	    10.296
  20.680	       123	    1200	    11.091
  20.760	       104	    1200	    10.198
  20.840	       119	    1200	    10.909
  20.920	       137	    1200	    11.705
  21.000	       115	    1200	    10.724
  21.080	       110	    1200	    10.488
  21.160	       103	    1200	    10.149
  21.240	       103	    1200	    10.149
  21.320	        95	    1200	     9.747
  21.400	       103	    1200	    10.149
  21.480	        85	    1200	     9.220
  21.560	       107	    1200	    10.344
  21.640	       114	    1200	    10.677
  21.720	       101	    1200	    10.050
  21.800	       118	    1200	    10.863
  21.880	       126	    1200	    11.225
  21.960	       108	    1200	    10.392
  22.040	       125	    1200	    11.180
  22.120	       103	    1200	    10.149
  22.200	       117	    1200	    10.817
  22.280	       105	    1200	    10.247
  22.360	       111	    1200	    10.536
  22.440	       112	    1200	    10.583
  22.520	       162	    1200	    12.728
  22.600	       176	    1200	    13.266
  22.680	       177	    1200	    13.304
  22.760	       167	    1200	    12.923
  22.840	       130	    1200	    11.402
  22.920	       138	    1200	    11.747
  23.000	       108	    1200	    10.392
  23.080	        80	    1200	     8.944
  23.160	       100	    1200	    10.000
  23.240	       118	    1200	    10.863
  23.320	       120	    1200	    10.954
  23.400	       122	    1200	    11.045
  23.480	       106	    1200	    10.296
  23.560	       113	    1200	    10.630
  23.640	       100	    1200	    10.000
  23.720	       113	    1200	    10.630
  23.800	        93	    1200	     9.644
  23.880	       111	    1200	    10.536
  23.960	       102	    1200	    10.100
  24.040	       118	    1200	    10.863
  24.120	       105	    1200	    10.247
  24.200	       102	    1200	    10.100
  24.280	        94	    1200	     9.695
  24.360	       107	    1200	    10.344
  24.440	       118	    1200	    10.863
  24.520	       106	    1200	    10.296
  24.600	       106	    1200	    10.296
  24.680	        95	    1200	     9.747
  24.760	       101	    1200	    10.050
  24.840	        95	    1200	     9.747
  24.920	       102	    1200	    10.100
  25.000	       105	    1200	    10.247
  25.080	        98	    1200	     9.899
  25.160	        96	    1200	     9.798
  25.240	       102	    1200	    10.100
  25.320	        98	    1200	     9.899
  25.400	        99	    1200	     9.950
  25.480	       101	    1200	    10.050
  25.560	       102	    1200	    10.100
  25.640	        91	    1200	     9.539
  25.720	        85	    1200	     9.220
  25.800	        90	    1200	     9.487
  25.880	        93	    1200	     9.644
  25.960	        89	    1200	     9.434
  26.040	        93	    1200	     9.644
  26.120	        97	    1200	     9.849
  26.200	        80	    1200	     8.944
  26.280	        79	    1200	     8.888
  26.360	        89	    1200	     9.434
  26.440	        73	    1200	     8.544
  26.520	        75	    1200	     8.660
  26.600	        89	    1200	     9.434
  26.680	        83	    1200	     9.110
  26.760	        90	    1200	     9.487
  26.840	        76	    1200	     8.718
  26.920	        91	    1200	     9.539
  27.000	        87	    1200	     9.327
  27.080	       100	    1200	    10.000
  27.160	        75	    1200	     8.660
  27.240	        83	    1200	     9.110
  27.320	        85	    1200	     9.220
  27.400	        63	    1200	     7.937
  27.480	        81	    1200	     9.000
  27.560	        66	    1200	     8.124
  27.640	        69	    1200	     8.307
  27.720	        94	    1200	     9.695
  27.800	        79	    1200	     8.888
  27.880	        85	    1200	     9.220
  27.960	        65	    1200	     8.062
  28.040	        69	    1200	     8.307
  28.120	        66	    1200	     8.124
  28.200	        73	    1200	     8.544
  28.280	        92	    1200	     9.592
  28.360	        78	    1200	     8.832
  28.440	        72	    1200	     8.485
  28.520	        84	    1200	     9.165
  28.600	        84	    1200	     9.165
  28.680	        68	    1200	     8.246
  28.760	        60	    1200	     7.746
  28.840	        84	    1200	     9.165
  28.920	        73	    1200	     8.544
  29.000	        84	    1200	     9.165
  29.080	        71	    1200	     8.426
  29.160	        96	    1200	     9.798
  29.240	        80	    1200	     8.944
  29.320	        66	    1200	     8.124
  29.400	        77	    1200	     8.775
  29.480	        70	    1200	     8.367
  29.560	        67	    1200	     8.185
  29.640	        75	    1200	     8.660
  29.720	        74	    1200	     8.602
  29.800	        75	    1200	     8.660
  29.880	        72	    1200	     8.485
  29.960	        68	    1200	     8.246
  30.040	        79	    1200	     8.888
  30.120	        83	    1200	     9.110
  30.200	        72	    1200	     8.485
  30.280	        80	    1200	     8.944
  30.360	        83	    1200	     9.110
  30.440	        85	    1200	     9.220
  30.520	        70	    1200	     8.367
  30.600	        83	    1200	     9.110
  30.680	       100	    1200	    10.000
  30.760	        82	    1200	     9.055
  30.840	        72	    1200	     8.485
  30.920	        81	    1200	     9.000
  31.000	        82	    1200	     9.055
  31.080	        68	    1200	     8.246
  31.160	        99	    1200	     9.950
  31.240	        96	    1200	     9.798
  31.320	        91	    1200	     9.539
  31.400	       105	    1200	    10.247
  31.480	       125	    1200	    11.180
  31.560	       114	    1200	    10.677
  31.640	       128	    1200	    11.314
  31.720	       157	    1200	    12.530
  31.800	       160	    1200	    12.649
  31.880	       212	    1200	    14.560
  31.960	       318	    1200	    17.833
  32.040	       530	    1200	    23.022
  32.120	      1031	    1200	    32.109
  32.200	      1905	    1200	    43.646
  32.280	      2438	    1200	    49.376
  32.360	      2547	    1200	    50.468
  32.440	      2602	    1200	    51.010
  32.520	      1882	    1200	    43.382
  32.600	      1029	    1200	    32.078
  32.680	       514	    1200	    22.672
  32.760	       247	    1200	    15.716
  32.840	       194	    1200	    13.928
  32.920	       159	    1200	    12.610
  33.000	       121	    1200	    11.000
  33.080	       120	    1200	    10.954
  33.160	       109	    1200	    10.440
  33.240	        93	    1200	     9.644
  33.320	        96	    1200	     9.798
  33.400	        87	    1200	     9.327
  33.480	        86	    1200	     9.274
  33.560	        88	    1200	     9.381
  33.640	        89	    1200	     9.434
  33.720	        78	    1200	     8.832
  33.800	        97	    1200	     9.849
  33.880	        81	    1200	     9.000
  33.960	        74	    1200	     8.602
  34.040	        82	    1200	     9.055
  34.120	        73	    1200	     8.544
  34.200	        75	    1200	     8.660
  34.280	        59	    1200	     7.681
  34.360	        69	    1200	     8.307
  34.440	        61	    1200	     7.810
  34.520	        70	    1200	     8.367
  34.600	        60	    1200	     7.746
  34.680	        43	    1200	     6.557
  34.760	        62	    1200	     7.874
  34.840	        70	    1200	     8.367
  34.920	        62	    1200	     7.874
  35.000	        63	    1200	     7.937
  35.080	        68	    1200	     8.246
  35.160	        60	    1200	     7.746
  35.240	        62	    1200	     7.874
  35.320	        55	    1200	     7.416
  35.400	        58	    1200	     7.616
  35.480	        64	    1200	     8.000
  35.560	        58	    1200	     7.616
  35.640	        54	    1200	     7.348
  35.720	        50	    1200	     7.071
  35.800	        49	    1200	     7.000
  35.880	        41	    1200	     6.403
  35.960	        41	    1200	     6.403
  36.040	        57	    1200	     7.550
  36.120	        49	    1200	     7.000
  36.200	        43	    1200	     6.557
  36.280	        56	    1200	     7.483
  36.360	        42	    1200	     6.481
  36.440	        53	    1200	     7.280
  36.520	        48	    1200	     6.928
  36.600	        51	    1200	     7.141
  36.680	        54	    1200	     7.348
  36.760	        40	    1200	     6.325
  36.840	        48	    1200	     6.928
  36.920	        49	    1200	     7.000
  37.000	        41	    1200	     6.403
  37.080	        57	    1200	     7.550
  37.160	        42	    1200	     6.481
  37.240	        55	    1200	     7.416
  37.320	        46	    1200	     6.782
  37.400	        51	    1200	     7.141
  37.480	        40	    1200	     6.325
  37.560	        40	    1200	     6.325
  37.640	        56	    1200	     7.483
  37.720	        49	    1200	     7.000
  37.800	        45	    1200	     6.708
  37.880	        49	    1200	     7.000
  37.960	        57	    1200	     7.550
  38.040	        37	    1200	     6.083
  38.120	        50	    1200	     7.071
  38.200	        50	    1200	     7.071
  38.280	        37	    1200	     6.083
  38.360	        52	    1200	     7.211
  38.440	        57	    1200	     7.550
  38.520	        34	    1200	     5.831
  38.600	        45	    1200	     6.708
  38.680	        42	    1200	     6.481
  38.760	        52	    1200	     7.211
  38.840	        47	    1200	     6.856
  38.920	        41	    1200	     6.403
  39.000	        45	    1200	     6.708
  39.080	        44	    1200	     6.633
  39.160	        37	    1200	     6.083
  39.240	        65	    1200	     8.062
  39.320	        56	    1200	     7.483
  39.400	        76	    1200	     8.718
  39.480	        80	    1200	     8.944
  39.560	       121	    1200	    11.000
  39.640	       190	    1200	    13.784
  39.720	       322	    1200	    17.944
  39.800	       396	    1200	    19.900
  39.880	       439	    1200	    20.952
  39.960	       406	    1200	    20.149
  40.040	       431	    1200	    20.761
  40.120	       339	    1200	    18.412
  40.200	       206	    1200	    14.353
  40.280	       151	    1200	    12.288
  40.360	        90	    1200	     9.487
  40.440	        77	    1200	     8.775
  40.520	        59	    1200	     7.681
  40.600	        47	    1200	     6.856
  40.680	        53	    1200	     7.280
  40.760	        54	    1200	     7.348
  40.840	        49	    1200	     7.000
  40.920	        47	    1200	     6.856
  41.000	        56	    1200	     7.483
  41.080	        48	    1200	     6.928
  41.160	        44	    1200	     6.633
  41.240	        37	    1200	     6.083
  41.320	        35	    1200	     5.916
  41.400	        45	    1200	     6.708
  41.480	        47	    1200	     6.856
  41.560	        46	    1200	     6.782
  41.640	        54	    1200	     7.348
  41.720	        36	    1200	     6.000
  41.800	        38	    1200	     6.164
  41.880	        30	    1200	     5.477
  41.960	        41	    1200	     6.403
  42.040	        26	    1200	     5.099
  42.120	        46	    1200	     6.782
  42.200	        37	    1200	     6.083
  42.280	        40	    1200	     6.325
  42.360	        53	    1200	     7.280
  42.440	        45	    1200	     6.708
  42.520	        52	    1200	     7.211
  42.600	        50	    1200	     7.071
  42.680	        41	    1200	     6.403
  42.760	        51	    1200	     7.141
  42.840	        58	    1200	     7.616
  42.920	        31	    1200	     5.568
  43.000	        50	    1200	     7.071
  43.080	        47	    1200	     6.856
  43.160	        51	    1200	     7.141
  43.240	        34	    1200	     5.831
  43.320	        39	    1200	     6.245
  43.400	        51	    1200	     7.141
  43.480	        41	    1200	     6.403
  43.560	        48	    1200	     6.928
  43.640	        56	    1200	     7.483
  43.720	        64	    1200	     8.000
  43.800	        42	    1200	     6.481
  43.880	        53	    1200	     7.280
  43.960	        50	    1200	     7.071
  44.040	        41	    1200	     6.403
  44.120	        46	    1200	     6.782
  44.200	        43	    1200	     6.557
  44.280	        45	    1200	     6.708
  44.360	        47	    1200	     6.856
  44.440	        44	    1200	     6.633
  44.520	        39	    1200	     6.245
  44.600	        61	    1200	     7.810
  44.680	        51	    1200	     7.141
  44.760	        48	    1200	     6.928
  44.840	        45	    1200	     6.708
  44.920	        46	    1200	     6.782
  45.000	        50	    1200	     7.071
  45.080	        53	    1200	     7.280
  45.160	        60	    1200	     7.746
  45.240	        62	    1200	     7.874
  45.320	        62	    1200	     7.874
  45.400	        46	    1200	     6.782
  45.480	        45	    1200	     6.708
  45.560	        67	    1200	     8.185
  45.640	        61	    1200	     7.810
  45.720	        77	    1200	     8.775
  45.800	        71	    1200	     8.426
  45.880	        76	    1200	     8.718
  45.960	       115	    1200	    10.724
  46.040	       160	    1200	    12.649
  46.120	       239	    1200	    15.460
  46.200	       433	    1200	    20.809
  46.280	       674	    1200	    25.962
  46.360	       784	    1200	    28.000
  46.440	       821	    1200	    28.653
  46.520	       848	    1200	    29.120
  46.600	       852	    1200	    29.189
  46.680	       754	    1200	    27.459
  46.760	       505	    1200	    22.472
  46.840	       347	    1200	    18.628
  46.920	       223	    1200	    14.933
  47.000	       139	    1200	    11.790
  47.080	        94	    1200	     9.695
  47.160	        68	    1200	     8.246
  47.240	        64	    1200	     8.000
  47.320	        64	    1200	     8.000
  47.400	        60	    1200	     7.746
  47.480	        49	    1200	     7.000
  47.560	        59	    1200	     7.681
  47.640	        48	    1200	     6.928
  47.720	        47	    1200	     6.856
  47.800	        42	    1200	     6.481
  47.880	        48	    1200	     6.928
  47.960	        44	    1200	     6.633
  48.040	        38	    1200	     6.164
  48.120	        43	    1200	     6.557
  48.200	        34	    1200	     5.831
  48.280	        45	    1200	     6.708
  48.360	        35	    1200	     5.916
  48.440	        42	    1200	     6.481
  48.520	        48	    1200	     6.928
  48.600	        42	    1200	     6.481
  48.680	        38	    1200	     6.164
  48.760	        52	    1200	     7.211
  48.840	        38	    1200	     6.164
  48.920	        26	    1200	     5.099
  49.000	        38	    1200	     6.164
  49.080	        40	    1200	     6.325
  49.160	        46	    1200	     6.782
  49.240	        36	    1200	     6.000
  49.320	        38	    1200	     6.164
  49.400	        34	    1200	     5.831
  49.480	        51	    1200	     7.141
  49.560	        34	    1200	     5.831
  49.640	        37	    1200	     6.083
  49.720	        24	    1200	     4.899
  49.800	        43	    1200	     6.557
  49.880	        33	    1200	     5.745
  49.960	        47	    1200	     6.856
  50.040	        24	    1200	     4.899
  50.120	        43	    1200	     6.557
  50.200	        40	    1200	     6.325
  50.280	        40	    1200	     6.325
  50.360	        44	    1200	     6.633
  50.440	        32	    1200	     5.657
  50.520	        38	    1200	     6.164
  50.600	        35	    1200	     5.916
  50.680	        46	    1200	     6.782
  50.760	        40	    1200	     6.325
  50.840	        31	    1200	     5.568
  50.920	        31	    1200	     5.568
  51.000	        32	    1200	     5.657
  51.080	        28	    1200	     5.292
  51.160	        58	    1200	     7.616
  51.240	        35	    1200	     5.916
  51.320	        33	    1200	     5.745
  51.400	        30	    1200	     5.477
  51.480	        33	    1200	     5.745
  51.560	        37	    1200	     6.083
  51.640	        46	    1200	     6.782
  51.720	        40	    1200	     6.325
  51.800	        54	    1200	     7.348
  51.880	        48	    1200	     6.928
  51.960	        48	    1200	     6.928
  52.040	        45	    1200	     6.708
  52.120	        70	    1200	     8.367
  52.200	        69	    1200	     8.307
  52.280	        72	    1200	     8.485
  52.360	        72	    1200	     8.485
  52.440	        69	    1200	     8.307
  52.520	        66	    1200	     8.124
  52.600	        68	    1200	     8.246
  52.680	        63	    1200	     7.937
  52.760	        44	    1200	     6.633
  52.840	        52	    1200	     7.211
  52.920	        45	    1200	     6.708
  53.000	        42	    1200	     6.481
  53.080	        35	    1200	     5.916
  53.160	        34	    1200	     5.831
  53.240	        31	    1200	     5.568
  53.320	        37	    1200	     6.083
  53.400	        41	    1200	     6.403
  53.480	        40	    1200	     6.325
  53.560	        40	    1200	     6.325
  53.640	        40	    1200	     6.325
  53.720	        33	    1200	     5.745
  53.800	        37	    1200	     6.083
  53.880	        37	    1200	     6.083
  53.960	        43	    1200	     6.557
  54.040	        28	    1200	     5.292
  54.120	        40	    1200	     6.325
  54.200	        46	    1200	     6.782
  54.280	        38	    1200	     6.164
  54.360	        39	    1200	     6.245
  54.440	        39	    1200	     6.245
  54.520	        41	    1200	     6.403
  54.600	        32	    1200	     5.657
  54.680	        51	    1200	     7.141
  54.760	        38	    1200	     6.164
  54.840	        43	    1200	     6.557
  54.920	        45	    1200	     6.708
  55.000	        45	    1200	     6.708
  55.080	        40	    1200	     6.325
  55.160	        42	    1200	     6.481
  55.240	        42	    1200	     6.481
  55.320	        40	    1200	     6.325
  55.400	        27	    1200	     5.196
  55.480	        41	    1200	     6.403
  55.560	        37	    1200	     6.083
  55.640	        31	    1200	     5.568
  55.720	        37	    1200	     6.083
  55.800	        40	    1200	     6.325
  55.880	        42	    1200	     6.481
  55.960	        34	    1200	     5.831
  56.040	        46	    1200	     6.782
  56.120	        42	    1200	     6.481
  56.200	        53	    1200	     7.280
  56.280	        39	    1200	     6.245
  56.360	        41	    1200	     6.403
  56.440	        45	    1200	     6.708
  56.520	        53	    1200	     7.280
  56.600	        41	    1200	     6.403
  56.680	        38	    1200	     6.164
  56.760	        53	    1200	     7.280
  56.840	        58	    1200	     7.616
  56.920	        57	    1200	     7.550
  57.000	        66	    1200	     8.124
  57.080	        70	    1200	     8.367
  57.160	        66	    1200	     8.124
  57.240	        96	    1200	     9.798
  57.320	       132	    1200	    11.489
  57.400	       180	    1200	    13.416
  57.480	       264	    1200	    16.248
  57.560	       425	    1200	    20.616
  57.640	       550	    1200	    23.452
  57.720	       569	    1200	    23.854
  57.800	       604	    1200	    24.576
  57.880	       586	    1200	    24.207
  57.960	       621	    1200	    24.920
  58.040	       690	    1200	    26.268
  58.120	       616	    1200	    24.819
  58.200	       474	    1200	    21.772
  58.280	       348	    1200	    18.655
  58.360	       218	    1200	    14.765
  58.440	       137	    1200	    11.705
  58.520	       104	    1200	    10.198
  58.600	        83	    1200	     9.110
  58.680	        86	    1200	     9.274
  58.760	        60	    1200	     7.746
  58.840	        62	    1200	     7.874
  58.920	        53	    1200	     7.280
  59.000	        50	    1200	     7.071
  59.080	        50	    1200	     7.071
  59.160	        52	    1200	     7.211
  59.240	        43	    1200	     6.557
  59.320	        33	    1200	     5.745
  59.400	        38	    1200	     6.164
  59.480	        43	    1200	     6.557
  59.560	        45	    1200	     6.708
  59.640	        38	    1200	     6.164
  59.720	        40	    1200	     6.325
  59.800	        50	    1200	     7.071
  59.880	        52	    1200	     7.211
  59.960	        43	    1200	     6.557
  60.040	        41	    1200	     6.403
  60.120	        38	    1200	     6.164
  60.200	        46	    1200	     6.782
  60.280	        43	    1200	     6.557
  60.360	        32	    1200	     5.657
  60.440	        38	    1200	     6.164
  60.520	        34	    1200	     5.831
  60.600	        46	    1200	     6.782
  60.680	        34	    1200	     5.831
  60.760	        45	    1200	     6.708
  60.840	        45	    1200	     6.708
  60.920	        48	    1200	     6.928
  61.000	        39	    1200	     6.245
  61.080	        44	    1200	     6.633
  61.160	        40	    1200	     6.325
  61.240	        40	    1200	     6.325
  61.320	        32	    1200	     5.657
  61.400	        38	    1200	     6.164
  61.480	        35	    1200	     5.916
  61.560	        29	    1200	     5.385
  61.640	        39	    1200	     6.245
  61.720	        42	    1200	     6.481
  61.800	        31	    1200	     5.568
  61.880	        46	    1200	     6.782
  61.960	        41	    1200	     6.403
  62.040	        38	    1200	     6.164
  62.120	        46	    1200	     6.782
  62.200	        48	    1200	     6.928
  62.280	        33	    1200	     5.745
  62.360	        36	    1200	     6.000
  62.440	        36	    1200	     6.000
  62.520	        28	    1200	     5.292
  62.600	        40	    1200	     6.325
  62.680	        30	    1200	     5.477
  62.760	        45	    1200	     6.708
  62.840	        35	    1200	     5.916
  62.920	        39	    1200	     6.245
  63.000	        43	    1200	     6.557
  63.080	        35	    1200	     5.916
  63.160	        35	    1200	     5.916
  63.240	        32	    1200	     5.657
  63.320	        41	    1200	     6.403
  63.400	        30	    1200	     5.477
  63.480	        33	    1200	     5.745
  63.560	        33	    1200	     5.745
  63.640	        44	    1200	     6.633
  63.720	        30	    1200	     5.477
  63.800	        28	    1200	     5.292
  63.880	        41	    1200	     6.403
  63.960	        30	    1200	     5.477
  64.040	        36	    1200	     6.000
  64.120	        36	    1200	     6.000
  64.200	        36	    1200	     6.000
  64.280	        34	    1200	     5.831
  64.360	        34	    1200	     5.831
  64.440	        36	    1200	     6.000
  64.520	        30	    1200	     5.477
  64.600	        37	    1200	     6.083
  64.680	        49	    1200	     7.000
  64.760	        46	    1200	     6.782
  64.840	        33	    1200	     5.745
  64.920	        34	    1200	     5.831
  65.000	        36	    1200	     6.000
  65.080	        27	    1200	     5.196
  65.160	        44	    1200	     6.633
  65.240	        27	    1200	     5.196
  65.320	        44	    1200	     6.633
  65.400	        37	    1200	     6.083
  65.480	        31	    1200	     5.568
  65.560	        40	    1200	     6.325
  65.640	        41	    1200	     6.403
  65.720	        28	    1200	     5.292
  65.800	        33	    1200	     5.745
  65.880	        36	    1200	     6.000
  65.960	        42	    1200	     6.481
  66.040	        40	    1200	     6.325
  66.120	        39	    1200	     6.245
  66.200	        35	    1200	     5.916
  66.280	        36	    1200	     6.000
  66.360	        37	    1200	     6.083
  66.440	        45	    1200	     6.708
  66.520	        40	    1200	     6.325
  66.600	        51	    1200	     7.141
  66.680	        46	    1200	     6.782
  66.760	        40	    1200	     6.325
  66.840	        46	    1200	     6.782
  66.920	        52	    1200	     7.211
  67.000	        37	    1200	     6.083
  67.080	        39	    1200	     6.245
  67.160	        53	    1200	     7.280
  67.240	        57	    1200	     7.550
  67.320	        72	    1200	     8.485
  67.400	       102	    1200	    10.100
  67.480	       135	    1200	    11.619
  67.560	       196	    1200	    14.000
  67.640	       267	    1200	    16.340
  67.720	       281	    1200	    16.763
  67.800	       276	    1200	    16.613
  67.880	       311	    1200	    17.635
  67.960	       308	    1200	    17.550
  68.040	       321	    1200	    17.916
  68.120	       345	    1200	    18.574
  68.200	       287	    1200	    16.941
  68.280	       303	    1200	    17.407
  68.360	       251	    1200	    15.843
  68.440	       176	    1200	    13.266
  68.520	       131	    1200	    11.446
  68.600	        98	    1200	     9.899
  68.680	        68	    1200	     8.246
  68.760	        55	    1200	     7.416
  68.840	        51	    1200	     7.141
  68.920	        55	    1200	     7.416
  69.000	        63	    1200	     7.937
  69.080	        40	    1200	     6.325
  69.160	        45	    1200	     6.708
  69.240	        53	    1200	     7.280
  69.320	        33	    1200	     5.745
  69.400	        38	    1200	     6.164
  69.480	        44	    1200	     6.633
  69.560	        35	    1200	     5.916
  69.640	        29	    1200	     5.385
  69.720	        32	    1200	     5.657
  69.800	        46	    1200	     6.782
  69.880	        42	    1200	     6.481
  69.960	        34	    1200	     5.831
  70.040	        34	    1200	     5.831
  70.120	        40	    1200	     6.325
  70.200	        35	    1200	     5.916
  70.280	        42	    1200	     6.481
  70.360	        30	    1200	     5.477
  70.440	        32	    1200	     5.657
  70.520	        45	    1200	     6.708
  70.600	        53	    1200	     7.280
  70.680	        46	    1200	     6.782
  70.760	        28	    1200	     5.292
  70.840	        29	    1200	     5.385
  70.920	        38	    1200	     6.164
  71.000	        39	    1200	     6.245
  71.080	        37	    1200	     6.083
  71.160	        33	    1200	     5.745
  71.240	        34	    1200	     5.831
  71.320	        41	    1200	     6.403
  71.400	        33	    1200	     5.745
  71.480	        29	    1200	     5.385
  71.560	        42	    1200	     6.481
  71.640	        33	    1200	     5.745
  71.720	        22	    1200	     4.690
  71.800	        38	    1200	     6.164
  71.880	        31	    1200	     5.568
  71.960	        38	    1200	     6.164
  72.040	        42	    1200	     6.481
  72.120	        31	    1200	     5.568
  72.200	        37	    1200	     6.083
  72.280	        58	    1200	     7.616
  72.360	        39	    1200	     6.245
  72.440	        44	    1200	     6.633
  72.520	        35	    1200	     5.916
  72.600	        57	    1200	     7.550
  72.680	        49	    1200	     7.000
  72.760	        48	    1200	     6.928
  72.840	        40	    1200	     6.325
  72.920	        47	    1200	     6.856
  73.000	        43	    1200	     6.557
  73.080	        48	    1200	     6.928
  73.160	        41	    1200	     6.403
  73.240	        41	    1200	     6.403
  73.320	        22	    1200	     4.690
  73.400	        24	    1200	     4.899
  73.480	        46	    1200	     6.782
  73.560	        43	    1200	     6.557
  73.640	        40	    1200	     6.325
  73.720	        37	    1200	     6.083
  73.800	        31	    1200	     5.568
  73.880	        30	    1200	     5.477
  73.960	        37	    1200	     6.083
  74.040	        34	    1200	     5.831
  74.120	        39	    1200	     6.245
  74.200	        36	    1200	     6.000
  74.280	        34	    1200	     5.831
  74.360	        40	    1200	     6.325
  74.440	        37	    1200	     6.083
  74.520	        35	    1200	     5.916
  74.600	        33	    1200	     5.745
  74.680	        25	    1200	     5.000
  74.760	        40	    1200	     6.325
  74.840	        32	    1200	     5.657
  74.920	        42	    1200	     6.481
  75.000	        30	    1200	     5.477
  75.080	        26	    1200	     5.099
  75.160	        41	    1200	     6.403
  75.240	        41	    1200	     6.403
  75.320	        42	    1200	     6.481
  75.400	        45	    1200	     6.708
  75.480	        34	    1200	     5.831
  75.560	        43	    1200	     6.557
  75.640	        37	    1200	     6.083
  75.720	        24	    1200	     4.899
  75.800	        30	    1200	     5.477
  75.880	        42	    1200	     6.481
  75.960	        45	    1200	     6.708
  76.040	        36	    1200	     6.000
  76.120	        35	    1200	     5.916
  76.200	        43	    1200	     6.557
  76.280	        28	    1200	     5.292
  76.360	        54	    1200	     7.348
  76.440	        43	    1200	     6.557
  76.520	        63	    1200	     7.937
  76.600	        61	    1200	     7.810
  76.680	        52	    1200	     7.211
  76.760	        62	    1200	     7.874
  76.840	        99	    1200	     9.950
  76.920	       139	    1200	    11.790
  77.000	       178	    1200	    13.342
  77.080	       163	    1200	    12.767
  77.160	       209	    1200	    14.457
  77.240	       206	    1200	    14.353
  77.320	       172	    1200	    13.115
  77.400	       187	    1200	    13.675
  77.480	       197	    1200	    14.036
  77.560	       209	    1200	    14.457
  77.640	       208	    1200	    14.422
  77.720	       191	    1200	    13.820
  77.800	       149	    1200	    12.207
  77.880	       151	    1200	    12.288
  77.960	       110	    1200	    10.488
  78.040	       104	    1200	    10.198
  78.120	        84	    1200	     9.165
  78.200	        75	    1200	     8.660
  78.280	        65	    1200	     8.062
  78.360	        54	    1200	     7.348
  78.440	        44	    1200	     6.633
  78.520	        46	    1200	     6.782
  78.600	        36	    1200	     6.000
  78.680	        42	    1200	     6.481
  78.760	        28	    1200	     5.292
  78.840	        40	    1200	     6.325
  78.920	        30	    1200	     5.477
  79.000	        38	    1200	     6.164
  79.080	        32	    1200	     5.657
  79.160	        39	    1200	     6.245
  79.240	        52	    1200	     7.211
  79.320	        33	    1200	     5.745
  79.400	        33	    1200	     5.745
  79.480	        25	    1200	     5.000
  79.560	        29	    1200	     5.385
  79.640	        24	    1200	     4.899
  79.720	        24	    1200	     4.899
  79.800	        39	    1200	     6.245
  79.880	        35	    1200	     5.916
  79.960	        37	    1200	     6.083
  80.040	        29	    1200	     5.385
  80.120	        32	    1200	     5.657
  80.200	        29	    1200	     5.385
  80.280	        37	    1200	     6.083
  80.360	        44	    1200	     6.633
  80.440	        40	    1200	     6.325
  80.520	        30	    1200	     5.477
  80.600	        33	    1200	     5.745
  80.680	        25	    1200	     5.000
  80.760	        38	    1200	     6.164
  80.840	        42	    1200	     6.481
  80.920	        37	    1200	     6.083
  81.000	        33	    1200	     5.745
  81.080	        32	    1200	     5.657
  81.160	        45	    1200	     6.708
  81.240	        36	    1200	     6.000
  81.320	        40	    1200	     6.325
  81.400	        55	    1200	     7.416
  81.480	        67	    1200	     8.185
  81.560	        76	    1200	     8.718
  81.640	        62	    1200	     7.874
  81.720	        70	    1200	     8.367
  81.800	        88	    1200	     9.381
  81.880	        75	    1200	     8.660
  81.960	        78	    1200	     8.832
  82.040	        60	    1200	     7.746
  82.120	        57	    1200	     7.550
  82.200	        81	    1200	     9.000
  82.280	        58	    1200	     7.616
  82.360	        52	    1200	     7.211
  82.440	        61	    1200	     7.810
  82.520	        42	    1200	     6.481
  82.600	        59	    1200	     7.681
  82.680	        30	    1200	     5.477
  82.760	        39	    1200	     6.245
  82.840	        35	    1200	     5.916
  82.920	        29	    1200	     5.385
  83.000	        23	    1200	     4.796
  83.080	        30	    1200	     5.477
  83.160	        28	    1200	     5.292
  83.240	        34	    1200	     5.831
  83.320	        27	    1200	     5.196
  83.400	        31	    1200	     5.568
  83.480	        26	    1200	     5.099
  83.560	        30	    1200	     5.477
  83.640	        44	    1200	     6.633
  83.720	        43	    1200	     6.557
  83.800	        45	    1200	     6.708
  83.880	        31	    1200	     5.568
  83.960	        37	    1200	     6.083
  84.040	        33	    1200	     5.745
  84.120	        38	    1200	     6.164
  84.200	        18	    1200	     4.243
  84.280	        28	    1200	     5.292
  84.360	        32	    1200	     5.657
  84.440	        29	    1200	     5.385
  84.520	        25	    1200	     5.000
  84.600	        44	    1200	     6.633
  84.680	        32	    1200	     5.657
  84.760	        28	    1200	     5.292
  84.840	        33	    1200	     5.745
  84.920	        31	    1200	     5.568
  85.000	        28	    1200	     5.292
  85.080	        30	    1200	     5.477
  85.160	        30	    1200	     5.477
  85.240	        34	    1200	     5.831
  85.320	        42	    1200	     6.481
  85.400	        29	    1200	     5.385
  85.480	        31	    1200	     5.568
  85.560	        32	    1200	     5.657
  85.640	        40	    1200	     6.325
  85.720	        38	    1200	     6.164
  85.800	        45	    1200	     6.708
  85.880	        54	    1200	     7.348
  85.960	        69	    1200	     8.307
  86.040	        70	    1200	     8.367
  86.120	        78	    1200	     8.832
  86.200	        79	    1200	     8.888
  86.280	        76	    1200	     8.718
  86.360	        70	    1200	     8.367
  86.440	        66	    1200	     8.124
  86.520	        87	    1200	     9.327
  86.600	       106	    1200	    10.296
  86.680	        85	    1200	     9.220
  86.760	       109	    1200	    10.440
  86.840	        80	    1200	     8.944
  86.920	        79	    1200	     8.888
  87.000	        85	    1200	     9.220
  87.080	        66	    1200	     8.124
  87.160	        57	    1200	     7.550
  87.240	        50	    1200	     7.071
  87.320	        53	    1200	     7.280
  87.400	        30	    1200	     5.477
  87.480	        32	    1200	     5.657
  87.560	        37	    1200	     6.083
  87.640	        27	    1200	     5.196
  87.720	        33	    1200	     5.745
  87.800	        31	    1200	     5.568
  87.880	        22	    1200	     4.690
  87.960	        30	    1200	     5.477
  88.040	        30	    1200	     5.477
  88.120	        30	    1200	     5.477
  88.200	        21	    1200	     4.583
  88.280	        20	    1200	     4.472
  88.360	        34	    1200	     5.831
  88.440	        46	    1200	     6.782
  88.520	        33	    1200	     5.745
  88.600	        29	    1200	     5.385
  88.680	        31	    1200	     5.568
  88.760	        21	    1200	     4.583
  88.840	        31	    1200	     5.568
  88.920	        29	    1200	     5.385
  89.000	        31	    1200	     5.568
  89.080	        30	    1200	     5.477
  89.160	        23	    1200	     4.796
  89.240	        27	    1200	     5.196
  89.320	        25	    1200	     5.000
  89.400	        26	    1200	     5.099
  89.480	        37	    1200	     6.083
  89.560	        27	    1200	     5.196
  89.640	        27	    1200	     5.196
  89.720	        28	    1200	     5.292
  89.800	        37	    1200	     6.083
  89.880	        31	    1200	     5.568
  89.960	        41	    1200	     6.403
  90.000	        43	    1200	     6.557