File: Ex Situ XRD/STF5 850C 97H2 4Hr.txt
         ID:

    Comment:

Scan Type: Normal
Start Angle: 15 deg.
Stop Angle: 90 deg.
Num Points: 3751
Step Size: 0.02 deg.
Datafile Res: 1600
Scan Rate: 1.000000
Scan Mode: Continuous
Wavelength: 1.540562

Diffractometer Optics:
		Detector:
			 Type: Fixed Slits
			 X2 Configuration: No
		Tube:
			 Type: Fixed Slits
			 X2 Configuration: No

Axis[0]
	 Selected   : no
	 Iterative  : no
	 Start Angle: 0.000000
	 Stop Angle : 0.000000
	 Step Size  : 0.000000
	 Oscillating: no

Axis[1]
	 Selected   : no
	 Iterative  : no
	 Start Angle: 0.000000
	 Stop Angle : 0.000000
	 Step Size  : 0.000000
	 Oscillating: no

Axis[2]
	 Selected   : no
	 Iterative  : no
	 Start Angle: 0.000000
	 Stop Angle : 0.000000
	 Step Size  : 0.000000
	 Oscillating: no

Axis[3]
	 Selected   : no
	 Iterative  : no
	 Start Angle: 0.000000
	 Stop Angle : 0.000000
	 Step Size  : 0.000000
	 Oscillating: no

Axis[4]
	 Selected   : no
	 Iterative  : no
	 Start Angle: 0.000000
	 Stop Angle : 0.000000
	 Step Size  : 0.000000
	 Oscillating: no

Axis[5]
	 Selected   : no
	 Iterative  : no
	 Start Angle: 0.000000
	 Stop Angle : 0.000000
	 Step Size  : 0.000000
	 Oscillating: no

Axis[6]
	 Selected   : no
	 Iterative  : no
	 Start Angle: 0.000000
	 Stop Angle : 0.000000
	 Step Size  : 0.000000
	 Oscillating: no

Axis[7]
	 Selected   : no
	 Iterative  : no
	 Start Angle: 0.000000
	 Stop Angle : 0.000000
	 Step Size  : 0.000000
	 Oscillating: no

Axis[8]
	 Selected   : no
	 Iterative  : no
	 Start Angle: 0.000000
	 Stop Angle : 0.000000
	 Step Size  : 0.000000
	 Oscillating: no

Axis[9]
	 Selected   : no
	 Iterative  : no
	 Start Angle: 0.000000
	 Stop Angle : 0.000000
	 Step Size  : 0.000000
	 Oscillating: no

	   Deg.    Counts 	   Time 	    ESD

Range 0
  15.000	       108	    1200	    10.392
  15.080	       124	    1200	    11.136
  15.160	       117	    1200	    10.817
  15.240	       116	    1200	    10.770
  15.320	       119	    1200	    10.909
  15.400	       131	    1200	    11.446
  15.480	       144	    1200	    12.000
  15.560	       109	    1200	    10.440
  15.640	       128	    1200	    11.314
  15.720	       126	    1200	    11.225
  15.800	       100	    1200	    10.000
  15.880	        92	    1200	     9.592
  15.960	       105	    1200	    10.247
  16.040	       106	    1200	    10.296
  16.120	       116	    1200	    10.770
  16.200	       121	    1200	    11.000
  16.280	       136	    1200	    11.662
  16.360	       131	    1200	    11.446
  16.440	       135	    1200	    11.619
  16.520	       119	    1200	    10.909
  16.600	       104	    1200	    10.198
  16.680	       129	    1200	    11.358
  16.760	       104	    1200	    10.198
  16.840	       120	    1200	    10.954
  16.920	       117	    1200	    10.817
  17.000	       114	    1200	    10.677
  17.080	       145	    1200	    12.042
  17.160	       115	    1200	    10.724
  17.240	       114	    1200	    10.677
  17.320	        94	    1200	     9.695
  17.400	       129	    1200	    11.358
  17.480	       130	    1200	    11.402
  17.560	       113	    1200	    10.630
  17.640	       120	    1200	    10.954
  17.720	       126	    1200	    11.225
  17.800	       100	    1200	    10.000
  17.880	       134	    1200	    11.576
  17.960	       116	    1200	    10.770
  18.040	       104	    1200	    10.198
  18.120	       121	    1200	    11.000
  18.200	       122	    1200	    11.045
  18.280	       129	    1200	    11.358
  18.360	       128	    1200	    11.314
  18.440	       148	    1200	    12.166
  18.520	       113	    1200	    10.630
  18.600	       121	    1200	    11.000
  18.680	       122	    1200	    11.045
  18.760	       125	    1200	    11.180
  18.840	       123	    1200	    11.091
  18.920	       130	    1200	    11.402
  19.000	       110	    1200	    10.488
  19.080	       116	    1200	    10.770
  19.160	       135	    1200	    11.619
  19.240	       129	    1200	    11.358
  19.320	       112	    1200	    10.583
  19.400	       127	    1200	    11.269
  19.480	       129	    1200	    11.358
  19.560	       129	    1200	    11.358
  19.640	       129	    1200	    11.358
  19.720	       131	    1200	    11.446
  19.800	       125	    1200	    11.180
  19.880	       139	    1200	    11.790
  19.960	       133	    1200	    11.533
  20.040	       141	    1200	    11.874
  20.120	       120	    1200	    10.954
  20.200	       125	    1200	    11.180
  20.280	       134	    1200	    11.576
  20.360	       110	    1200	    10.488
  20.440	       126	    1200	    11.225
  20.520	       139	    1200	    11.790
  20.600	       120	    1200	    10.954
  20.680	       128	    1200	    11.314
  20.760	       136	    1200	    11.662
  20.840	       128	    1200	    11.314
  20.920	       140	    1200	    11.832
  21.000	       129	    1200	    11.358
  21.080	       134	    1200	    11.576
  21.160	       137	    1200	    11.705
  21.240	       118	    1200	    10.863
  21.320	       121	    1200	    11.000
  21.400	       141	    1200	    11.874
  21.480	       125	    1200	    11.180
  21.560	       128	    1200	    11.314
  21.640	       127	    1200	    11.269
  21.720	       142	    1200	    11.916
  21.800	       122	    1200	    11.045
  21.880	       127	    1200	    11.269
  21.960	       144	    1200	    12.000
  22.040	       125	    1200	    11.180
  22.120	       114	    1200	    10.677
  22.200	       146	    1200	    12.083
  22.280	       124	    1200	    11.136
  22.360	       123	    1200	    11.091
  22.440	       135	    1200	    11.619
  22.520	       180	    1200	    13.416
  22.600	       190	    1200	    13.784
  22.680	       153	    1200	    12.369
  22.760	       149	    1200	    12.207
  22.840	       132	    1200	    11.489
  22.920	       166	    1200	    12.884
  23.000	       119	    1200	    10.909
  23.080	       146	    1200	    12.083
  23.160	       116	    1200	    10.770
  23.240	       121	    1200	    11.000
  23.320	       123	    1200	    11.091
  23.400	       115	    1200	    10.724
  23.480	       124	    1200	    11.136
  23.560	       115	    1200	    10.724
  23.640	       135	    1200	    11.619
  23.720	       114	    1200	    10.677
  23.800	       105	    1200	    10.247
  23.880	       140	    1200	    11.832
  23.960	       117	    1200	    10.817
  24.040	       108	    1200	    10.392
  24.120	        93	    1200	     9.644
  24.200	       124	    1200	    11.136
  24.280	       117	    1200	    10.817
  24.360	       101	    1200	    10.050
  24.440	       110	    1200	    10.488
  24.520	       111	    1200	    10.536
  24.600	       108	    1200	    10.392
  24.680	       100	    1200	    10.000
  24.760	       137	    1200	    11.705
  24.840	       121	    1200	    11.000
  24.920	       117	    1200	    10.817
  25.000	       118	    1200	    10.863
  25.080	       107	    1200	    10.344
  25.160	       121	    1200	    11.000
  25.240	       127	    1200	    11.269
  25.320	        93	    1200	     9.644
  25.400	       112	    1200	    10.583
  25.480	       130	    1200	    11.402
  25.560	        87	    1200	     9.327
  25.640	        93	    1200	     9.644
  25.720	        83	    1200	     9.110
  25.800	        99	    1200	     9.950
  25.880	       104	    1200	    10.198
  25.960	        81	    1200	     9.000
  26.040	        82	    1200	     9.055
  26.120	        90	    1200	     9.487
  26.200	        83	    1200	     9.110
  26.280	        86	    1200	     9.274
  26.360	        96	    1200	     9.798
  26.440	        97	    1200	     9.849
  26.520	       103	    1200	    10.149
  26.600	        76	    1200	     8.718
  26.680	        94	    1200	     9.695
  26.760	        89	    1200	     9.434
  26.840	        75	    1200	     8.660
  26.920	        88	    1200	     9.381
  27.000	        88	    1200	     9.381
  27.080	        83	    1200	     9.110
  27.160	        89	    1200	     9.434
  27.240	        86	    1200	     9.274
  27.320	        92	    1200	     9.592
  27.400	        57	    1200	     7.550
  27.480	        82	    1200	     9.055
  27.560	        91	    1200	     9.539
  27.640	        80	    1200	     8.944
  27.720	        67	    1200	     8.185
  27.800	        86	    1200	     9.274
  27.880	        85	    1200	     9.220
  27.960	        90	    1200	     9.487
  28.040	        66	    1200	     8.124
  28.120	        95	    1200	     9.747
  28.200	        70	    1200	     8.367
  28.280	        77	    1200	     8.775
  28.360	        73	    1200	     8.544
  28.440	        63	    1200	     7.937
  28.520	        56	    1200	     7.483
  28.600	        75	    1200	     8.660
  28.680	        60	    1200	     7.746
  28.760	        60	    1200	     7.746
  28.840	        85	    1200	     9.220
  28.920	        67	    1200	     8.185
  29.000	        64	    1200	     8.000
  29.080	        66	    1200	     8.124
  29.160	        53	    1200	     7.280
  29.240	        66	    1200	     8.124
  29.320	        59	    1200	     7.681
  29.400	        53	    1200	     7.280
  29.480	        59	    1200	     7.681
  29.560	        67	    1200	     8.185
  29.640	        48	    1200	     6.928
  29.720	        55	    1200	     7.416
  29.800	        52	    1200	     7.211
  29.880	        67	    1200	     8.185
  29.960	        58	    1200	     7.616
  30.040	        55	    1200	     7.416
  30.120	        71	    1200	     8.426
  30.200	        49	    1200	     7.000
  30.280	        65	    1200	     8.062
  30.360	        63	    1200	     7.937
  30.440	        67	    1200	     8.185
  30.520	        53	    1200	     7.280
  30.600	        51	    1200	     7.141
  30.680	        65	    1200	     8.062
  30.760	        56	    1200	     7.483
  30.840	        58	    1200	     7.616
  30.920	        60	    1200	     7.746
  31.000	        59	    1200	     7.681
  31.080	        59	    1200	     7.681
  31.160	        63	    1200	     7.937
  31.240	        78	    1200	     8.832
  31.320	       100	    1200	    10.000
  31.400	       158	    1200	    12.570
  31.480	       232	    1200	    15.232
  31.560	       313	    1200	    17.692
  31.640	       459	    1200	    21.424
  31.720	       434	    1200	    20.833
  31.800	       279	    1200	    16.703
  31.880	       326	    1200	    18.055
  31.960	       381	    1200	    19.519
  32.040	       846	    1200	    29.086
  32.120	      1837	    1200	    42.860
  32.200	      2859	    1200	    53.470
  32.280	      2310	    1200	    48.062
  32.360	      1118	    1200	    33.437
  32.440	       433	    1200	    20.809
  32.520	       198	    1200	    14.071
  32.600	       132	    1200	    11.489
  32.680	        93	    1200	     9.644
  32.760	        73	    1200	     8.544
  32.840	        75	    1200	     8.660
  32.920	        65	    1200	     8.062
  33.000	        72	    1200	     8.485
  33.080	        57	    1200	     7.550
  33.160	        62	    1200	     7.874
  33.240	        50	    1200	     7.071
  33.320	        50	    1200	     7.071
  33.400	        55	    1200	     7.416
  33.480	        43	    1200	     6.557
  33.560	        46	    1200	     6.782
  33.640	        48	    1200	     6.928
  33.720	        44	    1200	     6.633
  33.800	        46	    1200	     6.782
  33.880	        50	    1200	     7.071
  33.960	        36	    1200	     6.000
  34.040	        39	    1200	     6.245
  34.120	        38	    1200	     6.164
  34.200	        30	    1200	     5.477
  34.280	        46	    1200	     6.782
  34.360	        25	    1200	     5.000
  34.440	        39	    1200	     6.245
  34.520	        29	    1200	     5.385
  34.600	        25	    1200	     5.000
  34.680	        40	    1200	     6.325
  34.760	        34	    1200	     5.831
  34.840	        34	    1200	     5.831
  34.920	        31	    1200	     5.568
  35.000	        33	    1200	     5.745
  35.080	        30	    1200	     5.477
  35.160	        36	    1200	     6.000
  35.240	        37	    1200	     6.083
  35.320	        27	    1200	     5.196
  35.400	        35	    1200	     5.916
  35.480	        34	    1200	     5.831
  35.560	        21	    1200	     4.583
  35.640	        25	    1200	     5.000
  35.720	        25	    1200	     5.000
  35.800	        28	    1200	     5.292
  35.880	        13	    1200	     3.606
  35.960	        31	    1200	     5.568
  36.040	        19	    1200	     4.359
  36.120	        33	    1200	     5.745
  36.200	        16	    1200	     4.000
  36.280	        25	    1200	     5.000
  36.360	        24	    1200	     4.899
  36.440	        26	    1200	     5.099
  36.520	        24	    1200	     4.899
  36.600	        19	    1200	     4.359
  36.680	        15	    1200	     3.873
  36.760	        20	    1200	     4.472
  36.840	        24	    1200	     4.899
  36.920	        20	    1200	     4.472
  37.000	        21	    1200	     4.583
  37.080	        23	    1200	     4.796
  37.160	        31	    1200	     5.568
  37.240	        46	    1200	     6.782
  37.320	        27	    1200	     5.196
  37.400	        29	    1200	     5.385
  37.480	        27	    1200	     5.196
  37.560	        28	    1200	     5.292
  37.640	        26	    1200	     5.099
  37.720	        24	    1200	     4.899
  37.800	        28	    1200	     5.292
  37.880	        27	    1200	     5.196
  37.960	        21	    1200	     4.583
  38.040	        20	    1200	     4.472
  38.120	        27	    1200	     5.196
  38.200	        23	    1200	     4.796
  38.280	        21	    1200	     4.583
  38.360	        17	    1200	     4.123
  38.440	        28	    1200	     5.292
  38.520	        41	    1200	     6.403
  38.600	        27	    1200	     5.196
  38.680	        30	    1200	     5.477
  38.760	        30	    1200	     5.477
  38.840	        30	    1200	     5.477
  38.920	        30	    1200	     5.477
  39.000	        29	    1200	     5.385
  39.080	        26	    1200	     5.099
  39.160	        21	    1200	     4.583
  39.240	        39	    1200	     6.245
  39.320	        27	    1200	     5.196
  39.400	        33	    1200	     5.745
  39.480	        60	    1200	     7.746
  39.560	        96	    1200	     9.798
  39.640	       217	    1200	    14.731
  39.720	       444	    1200	    21.071
  39.800	       446	    1200	    21.119
  39.880	       325	    1200	    18.028
  39.960	       166	    1200	    12.884
  40.040	        86	    1200	     9.274
  40.120	        68	    1200	     8.246
  40.200	        49	    1200	     7.000
  40.280	        34	    1200	     5.831
  40.360	        48	    1200	     6.928
  40.440	        41	    1200	     6.403
  40.520	        37	    1200	     6.083
  40.600	        30	    1200	     5.477
  40.680	        42	    1200	     6.481
  40.760	        37	    1200	     6.083
  40.840	        38	    1200	     6.164
  40.920	        38	    1200	     6.164
  41.000	        46	    1200	     6.782
  41.080	        46	    1200	     6.782
  41.160	        51	    1200	     7.141
  41.240	        70	    1200	     8.367
  41.320	        71	    1200	     8.426
  41.400	        72	    1200	     8.485
  41.480	        82	    1200	     9.055
  41.560	        59	    1200	     7.681
  41.640	        46	    1200	     6.782
  41.720	        53	    1200	     7.280
  41.800	        47	    1200	     6.856
  41.880	        44	    1200	     6.633
  41.960	        54	    1200	     7.348
  42.040	        34	    1200	     5.831
  42.120	        33	    1200	     5.745
  42.200	        35	    1200	     5.916
  42.280	        43	    1200	     6.557
  42.360	        32	    1200	     5.657
  42.440	        22	    1200	     4.690
  42.520	        28	    1200	     5.292
  42.600	        28	    1200	     5.292
  42.680	        27	    1200	     5.196
  42.760	        21	    1200	     4.583
  42.840	        19	    1200	     4.359
  42.920	        21	    1200	     4.583
  43.000	        24	    1200	     4.899
  43.080	        25	    1200	     5.000
  43.160	        25	    1200	     5.000
  43.240	        24	    1200	     4.899
  43.320	        28	    1200	     5.292
  43.400	        22	    1200	     4.690
  43.480	        15	    1200	     3.873
  43.560	        35	    1200	     5.916
  43.640	        28	    1200	     5.292
  43.720	        25	    1200	     5.000
  43.800	        35	    1200	     5.916
  43.880	        27	    1200	     5.196
  43.960	        34	    1200	     5.831
  44.040	        45	    1200	     6.708
  44.120	        36	    1200	     6.000
  44.200	        46	    1200	     6.782
  44.280	        64	    1200	     8.000
  44.360	        77	    1200	     8.775
  44.440	       112	    1200	    10.583
  44.520	       142	    1200	    11.916
  44.600	       111	    1200	    10.536
  44.680	        97	    1200	     9.849
  44.760	        66	    1200	     8.124
  44.840	        59	    1200	     7.681
  44.920	        44	    1200	     6.633
  45.000	        51	    1200	     7.141
  45.080	        36	    1200	     6.000
  45.160	        37	    1200	     6.083
  45.240	        31	    1200	     5.568
  45.320	        48	    1200	     6.928
  45.400	        44	    1200	     6.633
  45.480	        43	    1200	     6.557
  45.560	        45	    1200	     6.708
  45.640	        40	    1200	     6.325
  45.720	        72	    1200	     8.485
  45.800	        69	    1200	     8.307
  45.880	        94	    1200	     9.695
  45.960	       127	    1200	    11.269
  46.040	       233	    1200	    15.264
  46.120	       384	    1200	    19.596
  46.200	       810	    1200	    28.460
  46.280	      1107	    1200	    33.272
  46.360	       998	    1200	    31.591
  46.440	       721	    1200	    26.851
  46.520	       406	    1200	    20.149
  46.600	       190	    1200	    13.784
  46.680	       105	    1200	    10.247
  46.760	        66	    1200	     8.124
  46.840	        49	    1200	     7.000
  46.920	        39	    1200	     6.245
  47.000	        45	    1200	     6.708
  47.080	        35	    1200	     5.916
  47.160	        33	    1200	     5.745
  47.240	        29	    1200	     5.385
  47.320	        37	    1200	     6.083
  47.400	        31	    1200	     5.568
  47.480	        29	    1200	     5.385
  47.560	        25	    1200	     5.000
  47.640	        19	    1200	     4.359
  47.720	        26	    1200	     5.099
  47.800	        31	    1200	     5.568
  47.880	        28	    1200	     5.292
  47.960	        19	    1200	     4.359
  48.040	        24	    1200	     4.899
  48.120	        26	    1200	     5.099
  48.200	        21	    1200	     4.583
  48.280	        21	    1200	     4.583
  48.360	        24	    1200	     4.899
  48.440	        16	    1200	     4.000
  48.520	        22	    1200	     4.690
  48.600	        22	    1200	     4.690
  48.680	        21	    1200	     4.583
  48.760	        26	    1200	     5.099
  48.840	        21	    1200	     4.583
  48.920	        18	    1200	     4.243
  49.000	        15	    1200	     3.873
  49.080	        29	    1200	     5.385
  49.160	        21	    1200	     4.583
  49.240	        24	    1200	     4.899
  49.320	        18	    1200	     4.243
  49.400	        18	    1200	     4.243
  49.480	         9	    1200	     3.000
  49.560	        14	    1200	     3.742
  49.640	        19	    1200	     4.359
  49.720	        13	    1200	     3.606
  49.800	        15	    1200	     3.873
  49.880	        12	    1200	     3.464
  49.960	        15	    1200	     3.873
  50.040	        21	    1200	     4.583
  50.120	        14	    1200	     3.742
  50.200	        25	    1200	     5.000
  50.280	        14	    1200	     3.742
  50.360	        17	    1200	     4.123
  50.440	        11	    1200	     3.317
  50.520	         8	    1200	     2.828
  50.600	        20	    1200	     4.472
  50.680	        17	    1200	     4.123
  50.760	        27	    1200	     5.196
  50.840	        16	    1200	     4.000
  50.920	         8	    1200	     2.828
  51.000	        23	    1200	     4.796
  51.080	        14	    1200	     3.742
  51.160	        17	    1200	     4.123
  51.240	        16	    1200	     4.000
  51.320	        17	    1200	     4.123
  51.400	        18	    1200	     4.243
  51.480	        22	    1200	     4.690
  51.560	        19	    1200	     4.359
  51.640	        20	    1200	     4.472
  51.720	        13	    1200	     3.606
  51.800	        22	    1200	     4.690
  51.880	        22	    1200	     4.690
  51.960	        28	    1200	     5.292
  52.040	        49	    1200	     7.000
  52.120	        61	    1200	     7.810
  52.200	        62	    1200	     7.874
  52.280	        56	    1200	     7.483
  52.360	        54	    1200	     7.348
  52.440	        42	    1200	     6.481
  52.520	        23	    1200	     4.796
  52.600	        13	    1200	     3.606
  52.680	        14	    1200	     3.742
  52.760	        24	    1200	     4.899
  52.840	        22	    1200	     4.690
  52.920	        23	    1200	     4.796
  53.000	        32	    1200	     5.657
  53.080	        28	    1200	     5.292
  53.160	        15	    1200	     3.873
  53.240	        28	    1200	     5.292
  53.320	        24	    1200	     4.899
  53.400	        12	    1200	     3.464
  53.480	        26	    1200	     5.099
  53.560	        19	    1200	     4.359
  53.640	        29	    1200	     5.385
  53.720	        15	    1200	     3.873
  53.800	        23	    1200	     4.796
  53.880	        24	    1200	     4.899
  53.960	        20	    1200	     4.472
  54.040	        24	    1200	     4.899
  54.120	        19	    1200	     4.359
  54.200	        22	    1200	     4.690
  54.280	        19	    1200	     4.359
  54.360	        25	    1200	     5.000
  54.440	        30	    1200	     5.477
  54.520	        17	    1200	     4.123
  54.600	        24	    1200	     4.899
  54.680	        17	    1200	     4.123
  54.760	        28	    1200	     5.292
  54.840	        18	    1200	     4.243
  54.920	        18	    1200	     4.243
  55.000	        19	    1200	     4.359
  55.080	        21	    1200	     4.583
  55.160	        21	    1200	     4.583
  55.240	        25	    1200	     5.000
  55.320	        23	    1200	     4.796
  55.400	        29	    1200	     5.385
  55.480	        29	    1200	     5.385
  55.560	        41	    1200	     6.403
  55.640	        35	    1200	     5.916
  55.720	        38	    1200	     6.164
  55.800	        41	    1200	     6.403
  55.880	        48	    1200	     6.928
  55.960	        47	    1200	     6.856
  56.040	        51	    1200	     7.141
  56.120	        47	    1200	     6.856
  56.200	        54	    1200	     7.348
  56.280	        60	    1200	     7.746
  56.360	        67	    1200	     8.185
  56.440	        45	    1200	     6.708
  56.520	        47	    1200	     6.856
  56.600	        47	    1200	     6.856
  56.680	        47	    1200	     6.856
  56.760	        43	    1200	     6.557
  56.840	        51	    1200	     7.141
  56.920	        62	    1200	     7.874
  57.000	        68	    1200	     8.246
  57.080	        71	    1200	     8.426
  57.160	       121	    1200	    11.000
  57.240	       245	    1200	    15.652
  57.320	       347	    1200	    18.628
  57.400	       447	    1200	    21.142
  57.480	       654	    1200	    25.573
  57.560	       835	    1200	    28.896
  57.640	       824	    1200	    28.705
  57.720	       646	    1200	    25.417
  57.800	       480	    1200	    21.909
  57.880	       274	    1200	    16.553
  57.960	       148	    1200	    12.166
  58.040	        95	    1200	     9.747
  58.120	        69	    1200	     8.307
  58.200	        49	    1200	     7.000
  58.280	        49	    1200	     7.000
  58.360	        33	    1200	     5.745
  58.440	        45	    1200	     6.708
  58.520	        32	    1200	     5.657
  58.600	        32	    1200	     5.657
  58.680	        30	    1200	     5.477
  58.760	        31	    1200	     5.568
  58.840	        29	    1200	     5.385
  58.920	        26	    1200	     5.099
  59.000	        19	    1200	     4.359
  59.080	        32	    1200	     5.657
  59.160	        32	    1200	     5.657
  59.240	        19	    1200	     4.359
  59.320	        33	    1200	     5.745
  59.400	        23	    1200	     4.796
  59.480	        30	    1200	     5.477
  59.560	        33	    1200	     5.745
  59.640	        25	    1200	     5.000
  59.720	        20	    1200	     4.472
  59.800	        18	    1200	     4.243
  59.880	        27	    1200	     5.196
  59.960	        21	    1200	     4.583
  60.040	        18	    1200	     4.243
  60.120	        22	    1200	     4.690
  60.200	        11	    1200	     3.317
  60.280	        23	    1200	     4.796
  60.360	        17	    1200	     4.123
  60.440	        20	    1200	     4.472
  60.520	        26	    1200	     5.099
  60.600	         9	    1200	     3.000
  60.680	        16	    1200	     4.000
  60.760	        21	    1200	     4.583
  60.840	        20	    1200	     4.472
  60.920	        24	    1200	     4.899
  61.000	        19	    1200	     4.359
  61.080	        26	    1200	     5.099
  61.160	        18	    1200	     4.243
  61.240	        18	    1200	     4.243
  61.320	        21	    1200	     4.583
  61.400	        17	    1200	     4.123
  61.480	        21	    1200	     4.583
  61.560	        21	    1200	     4.583
  61.640	        15	    1200	     3.873
  61.720	        18	    1200	     4.243
  61.800	        20	    1200	     4.472
  61.880	        17	    1200	     4.123
  61.960	        17	    1200	     4.123
  62.040	        13	    1200	     3.606
  62.120	        27	    1200	     5.196
  62.200	        21	    1200	     4.583
  62.280	        17	    1200	     4.123
  62.360	        26	    1200	     5.099
  62.440	        16	    1200	     4.000
  62.520	        16	    1200	     4.000
  62.600	        21	    1200	     4.583
  62.680	        23	    1200	     4.796
  62.760	        19	    1200	     4.359
  62.840	        18	    1200	     4.243
  62.920	        15	    1200	     3.873
  63.000	        25	    1200	     5.000
  63.080	        18	    1200	     4.243
  63.160	        23	    1200	     4.796
  63.240	        25	    1200	     5.000
  63.320	        21	    1200	     4.583
  63.400	        23	    1200	     4.796
  63.480	        16	    1200	     4.000
  63.560	        13	    1200	     3.606
  63.640	        20	    1200	     4.472
  63.720	        28	    1200	     5.292
  63.800	        20	    1200	     4.472
  63.880	        28	    1200	     5.292
  63.960	        24	    1200	     4.899
  64.040	        20	    1200	     4.472
  64.120	        24	    1200	     4.899
  64.200	        31	    1200	     5.568
  64.280	        29	    1200	     5.385
  64.360	        20	    1200	     4.472
  64.440	        34	    1200	     5.831
  64.520	        22	    1200	     4.690
  64.600	        29	    1200	     5.385
  64.680	        17	    1200	     4.123
  64.760	        19	    1200	     4.359
  64.840	        16	    1200	     4.000
  64.920	        27	    1200	     5.196
  65.000	        27	    1200	     5.196
  65.080	        22	    1200	     4.690
  65.160	        14	    1200	     3.742
  65.240	        26	    1200	     5.099
  65.320	        16	    1200	     4.000
  65.400	        17	    1200	     4.123
  65.480	        31	    1200	     5.568
  65.560	        26	    1200	     5.099
  65.640	        31	    1200	     5.568
  65.720	        28	    1200	     5.292
  65.800	        34	    1200	     5.831
  65.880	        28	    1200	     5.292
  65.960	        31	    1200	     5.568
  66.040	        24	    1200	     4.899
  66.120	        42	    1200	     6.481
  66.200	        48	    1200	     6.928
  66.280	        59	    1200	     7.681
  66.360	        62	    1200	     7.874
  66.440	        66	    1200	     8.124
  66.520	        71	    1200	     8.426
  66.600	        48	    1200	     6.928
  66.680	        49	    1200	     7.000
  66.760	        38	    1200	     6.164
  66.840	        40	    1200	     6.325
  66.920	        26	    1200	     5.099
  67.000	        40	    1200	     6.325
  67.080	        38	    1200	     6.164
  67.160	        48	    1200	     6.928
  67.240	        60	    1200	     7.746
  67.320	       129	    1200	    11.358
  67.400	       119	    1200	    10.909
  67.480	       222	    1200	    14.900
  67.560	       349	    1200	    18.682
  67.640	       418	    1200	    20.445
  67.720	       393	    1200	    19.824
  67.800	       387	    1200	    19.672
  67.880	       285	    1200	    16.882
  67.960	       185	    1200	    13.601
  68.040	       132	    1200	    11.489
  68.120	        91	    1200	     9.539
  68.200	        69	    1200	     8.307
  68.280	        50	    1200	     7.071
  68.360	        41	    1200	     6.403
  68.440	        45	    1200	     6.708
  68.520	        30	    1200	     5.477
  68.600	        33	    1200	     5.745
  68.680	        23	    1200	     4.796
  68.760	        27	    1200	     5.196
  68.840	        23	    1200	     4.796
  68.920	        23	    1200	     4.796
  69.000	        22	    1200	     4.690
  69.080	        25	    1200	     5.000
  69.160	        13	    1200	     3.606
  69.240	        27	    1200	     5.196
  69.320	        16	    1200	     4.000
  69.400	        27	    1200	     5.196
  69.480	        24	    1200	     4.899
  69.560	        24	    1200	     4.899
  69.640	        16	    1200	     4.000
  69.720	        12	    1200	     3.464
  69.800	        13	    1200	     3.606
  69.880	        18	    1200	     4.243
  69.960	         8	    1200	     2.828
  70.040	        23	    1200	     4.796
  70.120	        26	    1200	     5.099
  70.200	        18	    1200	     4.243
  70.280	        14	    1200	     3.742
  70.360	        17	    1200	     4.123
  70.440	        14	    1200	     3.742
  70.520	        14	    1200	     3.742
  70.600	        19	    1200	     4.359
  70.680	        14	    1200	     3.742
  70.760	        15	    1200	     3.873
  70.840	        14	    1200	     3.742
  70.920	        18	    1200	     4.243
  71.000	        26	    1200	     5.099
  71.080	        13	    1200	     3.606
  71.160	        22	    1200	     4.690
  71.240	        18	    1200	     4.243
  71.320	        16	    1200	     4.000
  71.400	        19	    1200	     4.359
  71.480	        19	    1200	     4.359
  71.560	        18	    1200	     4.243
  71.640	        21	    1200	     4.583
  71.720	        14	    1200	     3.742
  71.800	        16	    1200	     4.000
  71.880	        24	    1200	     4.899
  71.960	        25	    1200	     5.000
  72.040	        25	    1200	     5.000
  72.120	        24	    1200	     4.899
  72.200	        27	    1200	     5.196
  72.280	        23	    1200	     4.796
  72.360	        46	    1200	     6.782
  72.440	        48	    1200	     6.928
  72.520	        32	    1200	     5.657
  72.600	        27	    1200	     5.196
  72.680	        34	    1200	     5.831
  72.760	        23	    1200	     4.796
  72.840	        22	    1200	     4.690
  72.920	        22	    1200	     4.690
  73.000	        23	    1200	     4.796
  73.080	        15	    1200	     3.873
  73.160	        20	    1200	     4.472
  73.240	        13	    1200	     3.606
  73.320	        33	    1200	     5.745
  73.400	        21	    1200	     4.583
  73.480	        18	    1200	     4.243
  73.560	        25	    1200	     5.000
  73.640	        27	    1200	     5.196
  73.720	        28	    1200	     5.292
  73.800	        22	    1200	     4.690
  73.880	        26	    1200	     5.099
  73.960	        31	    1200	     5.568
  74.040	        25	    1200	     5.000
  74.120	        26	    1200	     5.099
  74.200	        30	    1200	     5.477
  74.280	        28	    1200	     5.292
  74.360	        25	    1200	     5.000
  74.440	        26	    1200	     5.099
  74.520	        28	    1200	     5.292
  74.600	        25	    1200	     5.000
  74.680	        24	    1200	     4.899
  74.760	        23	    1200	     4.796
  74.840	        12	    1200	     3.464
  74.920	        21	    1200	     4.583
  75.000	        21	    1200	     4.583
  75.080	        23	    1200	     4.796
  75.160	        20	    1200	     4.472
  75.240	        14	    1200	     3.742
  75.320	        18	    1200	     4.243
  75.400	        20	    1200	     4.472
  75.480	        21	    1200	     4.583
  75.560	        21	    1200	     4.583
  75.640	        27	    1200	     5.196
  75.720	        22	    1200	     4.690
  75.800	        28	    1200	     5.292
  75.880	        25	    1200	     5.000
  75.960	        24	    1200	     4.899
  76.040	        24	    1200	     4.899
  76.120	        27	    1200	     5.196
  76.200	        19	    1200	     4.359
  76.280	        25	    1200	     5.000
  76.360	        35	    1200	     5.916
  76.440	        46	    1200	     6.782
  76.520	        38	    1200	     6.164
  76.600	        58	    1200	     7.616
  76.680	        87	    1200	     9.327
  76.760	       130	    1200	    11.402
  76.840	       203	    1200	    14.248
  76.920	       263	    1200	    16.217
  77.000	       292	    1200	    17.088
  77.080	       298	    1200	    17.263
  77.160	       253	    1200	    15.906
  77.240	       242	    1200	    15.556
  77.320	       182	    1200	    13.491
  77.400	       107	    1200	    10.344
  77.480	        67	    1200	     8.185
  77.560	        59	    1200	     7.681
  77.640	        49	    1200	     7.000
  77.720	        32	    1200	     5.657
  77.800	        37	    1200	     6.083
  77.880	        30	    1200	     5.477
  77.960	        25	    1200	     5.000
  78.040	        21	    1200	     4.583
  78.120	        34	    1200	     5.831
  78.200	        29	    1200	     5.385
  78.280	        25	    1200	     5.000
  78.360	        23	    1200	     4.796
  78.440	        20	    1200	     4.472
  78.520	        22	    1200	     4.690
  78.600	        21	    1200	     4.583
  78.680	        24	    1200	     4.899
  78.760	        23	    1200	     4.796
  78.840	        21	    1200	     4.583
  78.920	        24	    1200	     4.899
  79.000	        17	    1200	     4.123
  79.080	        20	    1200	     4.472
  79.160	        15	    1200	     3.873
  79.240	        30	    1200	     5.477
  79.320	        20	    1200	     4.472
  79.400	        22	    1200	     4.690
  79.480	        17	    1200	     4.123
  79.560	        14	    1200	     3.742
  79.640	        21	    1200	     4.583
  79.720	        13	    1200	     3.606
  79.800	        18	    1200	     4.243
  79.880	        21	    1200	     4.583
  79.960	        13	    1200	     3.606
  80.040	        19	    1200	     4.359
  80.120	        18	    1200	     4.243
  80.200	        21	    1200	     4.583
  80.280	        19	    1200	     4.359
  80.360	        20	    1200	     4.472
  80.440	        22	    1200	     4.690
  80.520	        21	    1200	     4.583
  80.600	        22	    1200	     4.690
  80.680	        22	    1200	     4.690
  80.760	        18	    1200	     4.243
  80.840	        20	    1200	     4.472
  80.920	        19	    1200	     4.359
  81.000	        23	    1200	     4.796
  81.080	        29	    1200	     5.385
  81.160	        29	    1200	     5.385
  81.240	        39	    1200	     6.245
  81.320	        44	    1200	     6.633
  81.400	        59	    1200	     7.681
  81.480	        78	    1200	     8.832
  81.560	        71	    1200	     8.426
  81.640	        85	    1200	     9.220
  81.720	        86	    1200	     9.274
  81.800	        63	    1200	     7.937
  81.880	        62	    1200	     7.874
  81.960	        48	    1200	     6.928
  82.040	        41	    1200	     6.403
  82.120	        47	    1200	     6.856
  82.200	        49	    1200	     7.000
  82.280	        47	    1200	     6.856
  82.360	        34	    1200	     5.831
  82.440	        35	    1200	     5.916
  82.520	        35	    1200	     5.916
  82.600	        41	    1200	     6.403
  82.680	        38	    1200	     6.164
  82.760	        29	    1200	     5.385
  82.840	        29	    1200	     5.385
  82.920	        37	    1200	     6.083
  83.000	        34	    1200	     5.831
  83.080	        42	    1200	     6.481
  83.160	        26	    1200	     5.099
  83.240	        30	    1200	     5.477
  83.320	        23	    1200	     4.796
  83.400	        23	    1200	     4.796
  83.480	        30	    1200	     5.477
  83.560	        29	    1200	     5.385
  83.640	        20	    1200	     4.472
  83.720	        27	    1200	     5.196
  83.800	        24	    1200	     4.899
  83.880	        28	    1200	     5.292
  83.960	        23	    1200	     4.796
  84.040	        26	    1200	     5.099
  84.120	        20	    1200	     4.472
  84.200	        25	    1200	     5.000
  84.280	        21	    1200	     4.583
  84.360	        26	    1200	     5.099
  84.440	        25	    1200	     5.000
  84.520	        28	    1200	     5.292
  84.600	        22	    1200	     4.690
  84.680	        36	    1200	     6.000
  84.760	        31	    1200	     5.568
  84.840	        35	    1200	     5.916
  84.920	        34	    1200	     5.831
  85.000	        34	    1200	     5.831
  85.080	        23	    1200	     4.796
  85.160	        29	    1200	     5.385
  85.240	        31	    1200	     5.568
  85.320	        31	    1200	     5.568
  85.400	        29	    1200	     5.385
  85.480	        39	    1200	     6.245
  85.560	        32	    1200	     5.657
  85.640	        40	    1200	     6.325
  85.720	        50	    1200	     7.071
  85.800	        77	    1200	     8.775
  85.880	        84	    1200	     9.165
  85.960	       104	    1200	    10.198
  86.040	       121	    1200	    11.000
  86.120	       100	    1200	    10.000
  86.200	        99	    1200	     9.950
  86.280	       102	    1200	    10.100
  86.360	        71	    1200	     8.426
  86.440	        65	    1200	     8.062
  86.520	        47	    1200	     6.856
  86.600	        36	    1200	     6.000
  86.680	        25	    1200	     5.000
  86.760	        33	    1200	     5.745
  86.840	        26	    1200	     5.099
  86.920	        25	    1200	     5.000
  87.000	        26	    1200	     5.099
  87.080	        22	    1200	     4.690
  87.160	        24	    1200	     4.899
  87.240	        18	    1200	     4.243
  87.320	        17	    1200	     4.123
  87.400	        14	    1200	     3.742
  87.480	        22	    1200	     4.690
  87.560	        16	    1200	     4.000
  87.640	        11	    1200	     3.317
  87.720	        13	    1200	     3.606
  87.800	        16	    1200	     4.000
  87.880	        12	    1200	     3.464
  87.960	        16	    1200	     4.000
  88.040	        13	    1200	     3.606
  88.120	        15	    1200	     3.873
  88.200	        23	    1200	     4.796
  88.280	        14	    1200	     3.742
  88.360	        20	    1200	     4.472
  88.440	        16	    1200	     4.000
  88.520	        13	    1200	     3.606
  88.600	        16	    1200	     4.000
  88.680	        13	    1200	     3.606
  88.760	        23	    1200	     4.796
  88.840	        22	    1200	     4.690
  88.920	        29	    1200	     5.385
  89.000	        23	    1200	     4.796
  89.080	        18	    1200	     4.243
  89.160	        17	    1200	     4.123
  89.240	        19	    1200	     4.359
  89.320	        18	    1200	     4.243
  89.400	        19	    1200	     4.359
  89.480	        20	    1200	     4.472
  89.560	        17	    1200	     4.123
  89.640	        23	    1200	     4.796
  89.720	        16	    1200	     4.000
  89.800	        18	    1200	     4.243
  89.880	        21	    1200	     4.583
  89.960	        17	    1200	     4.123
  90.000	        23	    1200	     4.796