File: Ex Situ XRD/STF5 850C 91H2 4Hr.txt
         ID:

    Comment:

Scan Type: Normal
Start Angle: 15 deg.
Stop Angle: 90 deg.
Num Points: 3751
Step Size: 0.02 deg.
Datafile Res: 1600
Scan Rate: 1.000000
Scan Mode: Continuous
Wavelength: 1.540562

Diffractometer Optics:
		Detector:
			 Type: Fixed Slits
			 X2 Configuration: No
		Tube:
			 Type: Fixed Slits
			 X2 Configuration: No

Axis[0]
	 Selected   : no
	 Iterative  : no
	 Start Angle: 0.000000
	 Stop Angle : 0.000000
	 Step Size  : 0.000000
	 Oscillating: no

Axis[1]
	 Selected   : no
	 Iterative  : no
	 Start Angle: 0.000000
	 Stop Angle : 0.000000
	 Step Size  : 0.000000
	 Oscillating: no

Axis[2]
	 Selected   : no
	 Iterative  : no
	 Start Angle: 0.000000
	 Stop Angle : 0.000000
	 Step Size  : 0.000000
	 Oscillating: no

Axis[3]
	 Selected   : no
	 Iterative  : no
	 Start Angle: 0.000000
	 Stop Angle : 0.000000
	 Step Size  : 0.000000
	 Oscillating: no

Axis[4]
	 Selected   : no
	 Iterative  : no
	 Start Angle: 0.000000
	 Stop Angle : 0.000000
	 Step Size  : 0.000000
	 Oscillating: no

Axis[5]
	 Selected   : no
	 Iterative  : no
	 Start Angle: 0.000000
	 Stop Angle : 0.000000
	 Step Size  : 0.000000
	 Oscillating: no

Axis[6]
	 Selected   : no
	 Iterative  : no
	 Start Angle: 0.000000
	 Stop Angle : 0.000000
	 Step Size  : 0.000000
	 Oscillating: no

Axis[7]
	 Selected   : no
	 Iterative  : no
	 Start Angle: 0.000000
	 Stop Angle : 0.000000
	 Step Size  : 0.000000
	 Oscillating: no

Axis[8]
	 Selected   : no
	 Iterative  : no
	 Start Angle: 0.000000
	 Stop Angle : 0.000000
	 Step Size  : 0.000000
	 Oscillating: no

Axis[9]
	 Selected   : no
	 Iterative  : no
	 Start Angle: 0.000000
	 Stop Angle : 0.000000
	 Step Size  : 0.000000
	 Oscillating: no

	   Deg.    Counts 	   Time 	    ESD

Range 0
  15.000	       132	    1200	    11.489
  15.080	       104	    1200	    10.198
  15.160	       117	    1200	    10.817
  15.240	       115	    1200	    10.724
  15.320	       123	    1200	    11.091
  15.400	        95	    1200	     9.747
  15.480	       115	    1200	    10.724
  15.560	       107	    1200	    10.344
  15.640	       132	    1200	    11.489
  15.720	       105	    1200	    10.247
  15.800	       115	    1200	    10.724
  15.880	       102	    1200	    10.100
  15.960	       107	    1200	    10.344
  16.040	        99	    1200	     9.950
  16.120	       108	    1200	    10.392
  16.200	       107	    1200	    10.344
  16.280	       106	    1200	    10.296
  16.360	       119	    1200	    10.909
  16.440	       114	    1200	    10.677
  16.520	       115	    1200	    10.724
  16.600	       128	    1200	    11.314
  16.680	        92	    1200	     9.592
  16.760	       129	    1200	    11.358
  16.840	       125	    1200	    11.180
  16.920	       126	    1200	    11.225
  17.000	       106	    1200	    10.296
  17.080	       108	    1200	    10.392
  17.160	       123	    1200	    11.091
  17.240	        97	    1200	     9.849
  17.320	       131	    1200	    11.446
  17.400	       108	    1200	    10.392
  17.480	       105	    1200	    10.247
  17.560	       129	    1200	    11.358
  17.640	       123	    1200	    11.091
  17.720	        94	    1200	     9.695
  17.800	       101	    1200	    10.050
  17.880	       107	    1200	    10.344
  17.960	       105	    1200	    10.247
  18.040	       119	    1200	    10.909
  18.120	       121	    1200	    11.000
  18.200	       115	    1200	    10.724
  18.280	       110	    1200	    10.488
  18.360	       126	    1200	    11.225
  18.440	       113	    1200	    10.630
  18.520	       110	    1200	    10.488
  18.600	       107	    1200	    10.344
  18.680	       129	    1200	    11.358
  18.760	       119	    1200	    10.909
  18.840	       121	    1200	    11.000
  18.920	       116	    1200	    10.770
  19.000	        98	    1200	     9.899
  19.080	       117	    1200	    10.817
  19.160	       116	    1200	    10.770
  19.240	       112	    1200	    10.583
  19.320	       109	    1200	    10.440
  19.400	        96	    1200	     9.798
  19.480	       115	    1200	    10.724
  19.560	       102	    1200	    10.100
  19.640	       123	    1200	    11.091
  19.720	       121	    1200	    11.000
  19.800	       114	    1200	    10.677
  19.880	       106	    1200	    10.296
  19.960	        98	    1200	     9.899
  20.040	        93	    1200	     9.644
  20.120	       105	    1200	    10.247
  20.200	       108	    1200	    10.392
  20.280	        96	    1200	     9.798
  20.360	       107	    1200	    10.344
  20.440	       101	    1200	    10.050
  20.520	       102	    1200	    10.100
  20.600	       107	    1200	    10.344
  20.680	       101	    1200	    10.050
  20.760	       114	    1200	    10.677
  20.840	       105	    1200	    10.247
  20.920	       117	    1200	    10.817
  21.000	       103	    1200	    10.149
  21.080	        97	    1200	     9.849
  21.160	       116	    1200	    10.770
  21.240	       124	    1200	    11.136
  21.320	        96	    1200	     9.798
  21.400	       127	    1200	    11.269
  21.480	       123	    1200	    11.091
  21.560	       104	    1200	    10.198
  21.640	       111	    1200	    10.536
  21.720	        98	    1200	     9.899
  21.800	        98	    1200	     9.899
  21.880	        94	    1200	     9.695
  21.960	       119	    1200	    10.909
  22.040	        93	    1200	     9.644
  22.120	       101	    1200	    10.050
  22.200	       112	    1200	    10.583
  22.280	       115	    1200	    10.724
  22.360	       119	    1200	    10.909
  22.440	       133	    1200	    11.533
  22.520	       157	    1200	    12.530
  22.600	       159	    1200	    12.610
  22.680	       120	    1200	    10.954
  22.760	       106	    1200	    10.296
  22.840	       104	    1200	    10.198
  22.920	       120	    1200	    10.954
  23.000	       103	    1200	    10.149
  23.080	       101	    1200	    10.050
  23.160	        84	    1200	     9.165
  23.240	       105	    1200	    10.247
  23.320	        91	    1200	     9.539
  23.400	        91	    1200	     9.539
  23.480	        98	    1200	     9.899
  23.560	        96	    1200	     9.798
  23.640	       120	    1200	    10.954
  23.720	        84	    1200	     9.165
  23.800	        90	    1200	     9.487
  23.880	        94	    1200	     9.695
  23.960	        76	    1200	     8.718
  24.040	        93	    1200	     9.644
  24.120	        78	    1200	     8.832
  24.200	        90	    1200	     9.487
  24.280	        83	    1200	     9.110
  24.360	       101	    1200	    10.050
  24.440	       102	    1200	    10.100
  24.520	        79	    1200	     8.888
  24.600	        95	    1200	     9.747
  24.680	        94	    1200	     9.695
  24.760	        87	    1200	     9.327
  24.840	        63	    1200	     7.937
  24.920	        91	    1200	     9.539
  25.000	        98	    1200	     9.899
  25.080	        83	    1200	     9.110
  25.160	        88	    1200	     9.381
  25.240	        93	    1200	     9.644
  25.320	        72	    1200	     8.485
  25.400	        79	    1200	     8.888
  25.480	        80	    1200	     8.944
  25.560	        80	    1200	     8.944
  25.640	        86	    1200	     9.274
  25.720	        64	    1200	     8.000
  25.800	        70	    1200	     8.367
  25.880	        81	    1200	     9.000
  25.960	        71	    1200	     8.426
  26.040	        65	    1200	     8.062
  26.120	        65	    1200	     8.062
  26.200	        72	    1200	     8.485
  26.280	        73	    1200	     8.544
  26.360	        85	    1200	     9.220
  26.440	        64	    1200	     8.000
  26.520	        73	    1200	     8.544
  26.600	        72	    1200	     8.485
  26.680	        73	    1200	     8.544
  26.760	        68	    1200	     8.246
  26.840	        56	    1200	     7.483
  26.920	        76	    1200	     8.718
  27.000	        60	    1200	     7.746
  27.080	        69	    1200	     8.307
  27.160	        56	    1200	     7.483
  27.240	        59	    1200	     7.681
  27.320	        54	    1200	     7.348
  27.400	        70	    1200	     8.367
  27.480	        59	    1200	     7.681
  27.560	        55	    1200	     7.416
  27.640	        67	    1200	     8.185
  27.720	        65	    1200	     8.062
  27.800	        77	    1200	     8.775
  27.880	        58	    1200	     7.616
  27.960	        48	    1200	     6.928
  28.040	        62	    1200	     7.874
  28.120	        43	    1200	     6.557
  28.200	        52	    1200	     7.211
  28.280	        53	    1200	     7.280
  28.360	        52	    1200	     7.211
  28.440	        49	    1200	     7.000
  28.520	        41	    1200	     6.403
  28.600	        62	    1200	     7.874
  28.680	        57	    1200	     7.550
  28.760	        59	    1200	     7.681
  28.840	        57	    1200	     7.550
  28.920	        60	    1200	     7.746
  29.000	        49	    1200	     7.000
  29.080	        48	    1200	     6.928
  29.160	        46	    1200	     6.782
  29.240	        44	    1200	     6.633
  29.320	        59	    1200	     7.681
  29.400	        47	    1200	     6.856
  29.480	        48	    1200	     6.928
  29.560	        50	    1200	     7.071
  29.640	        43	    1200	     6.557
  29.720	        54	    1200	     7.348
  29.800	        50	    1200	     7.071
  29.880	        45	    1200	     6.708
  29.960	        48	    1200	     6.928
  30.040	        50	    1200	     7.071
  30.120	        59	    1200	     7.681
  30.200	        48	    1200	     6.928
  30.280	        62	    1200	     7.874
  30.360	        47	    1200	     6.856
  30.440	        56	    1200	     7.483
  30.520	        54	    1200	     7.348
  30.600	        43	    1200	     6.557
  30.680	        48	    1200	     6.928
  30.760	        55	    1200	     7.416
  30.840	        52	    1200	     7.211
  30.920	        42	    1200	     6.481
  31.000	        61	    1200	     7.810
  31.080	        47	    1200	     6.856
  31.160	        38	    1200	     6.164
  31.240	        44	    1200	     6.633
  31.320	        68	    1200	     8.246
  31.400	        59	    1200	     7.681
  31.480	        87	    1200	     9.327
  31.560	        90	    1200	     9.487
  31.640	       110	    1200	    10.488
  31.720	       122	    1200	    11.045
  31.800	       150	    1200	    12.247
  31.880	       255	    1200	    15.969
  31.960	       512	    1200	    22.627
  32.040	      1289	    1200	    35.903
  32.120	      2422	    1200	    49.214
  32.200	      2772	    1200	    52.650
  32.280	      1816	    1200	    42.615
  32.360	       908	    1200	    30.133
  32.440	       463	    1200	    21.517
  32.520	       196	    1200	    14.000
  32.600	       113	    1200	    10.630
  32.680	        95	    1200	     9.747
  32.760	        75	    1200	     8.660
  32.840	        71	    1200	     8.426
  32.920	        70	    1200	     8.367
  33.000	        66	    1200	     8.124
  33.080	        58	    1200	     7.616
  33.160	        47	    1200	     6.856
  33.240	        52	    1200	     7.211
  33.320	        36	    1200	     6.000
  33.400	        41	    1200	     6.403
  33.480	        46	    1200	     6.782
  33.560	        50	    1200	     7.071
  33.640	        46	    1200	     6.782
  33.720	        41	    1200	     6.403
  33.800	        39	    1200	     6.245
  33.880	        31	    1200	     5.568
  33.960	        35	    1200	     5.916
  34.040	        42	    1200	     6.481
  34.120	        40	    1200	     6.325
  34.200	        16	    1200	     4.000
  34.280	        35	    1200	     5.916
  34.360	        28	    1200	     5.292
  34.440	        43	    1200	     6.557
  34.520	        26	    1200	     5.099
  34.600	        33	    1200	     5.745
  34.680	        34	    1200	     5.831
  34.760	        27	    1200	     5.196
  34.840	        34	    1200	     5.831
  34.920	        35	    1200	     5.916
  35.000	        24	    1200	     4.899
  35.080	        28	    1200	     5.292
  35.160	        26	    1200	     5.099
  35.240	        28	    1200	     5.292
  35.320	        27	    1200	     5.196
  35.400	        21	    1200	     4.583
  35.480	        19	    1200	     4.359
  35.560	        22	    1200	     4.690
  35.640	        36	    1200	     6.000
  35.720	        33	    1200	     5.745
  35.800	        27	    1200	     5.196
  35.880	        18	    1200	     4.243
  35.960	        19	    1200	     4.359
  36.040	        27	    1200	     5.196
  36.120	        28	    1200	     5.292
  36.200	        23	    1200	     4.796
  36.280	        25	    1200	     5.000
  36.360	        19	    1200	     4.359
  36.440	        28	    1200	     5.292
  36.520	        16	    1200	     4.000
  36.600	        29	    1200	     5.385
  36.680	        31	    1200	     5.568
  36.760	        23	    1200	     4.796
  36.840	        16	    1200	     4.000
  36.920	        23	    1200	     4.796
  37.000	        29	    1200	     5.385
  37.080	        25	    1200	     5.000
  37.160	        18	    1200	     4.243
  37.240	        18	    1200	     4.243
  37.320	        23	    1200	     4.796
  37.400	        27	    1200	     5.196
  37.480	        25	    1200	     5.000
  37.560	        19	    1200	     4.359
  37.640	        27	    1200	     5.196
  37.720	        24	    1200	     4.899
  37.800	        25	    1200	     5.000
  37.880	        31	    1200	     5.568
  37.960	        22	    1200	     4.690
  38.040	        17	    1200	     4.123
  38.120	        30	    1200	     5.477
  38.200	        24	    1200	     4.899
  38.280	        29	    1200	     5.385
  38.360	        26	    1200	     5.099
  38.440	        21	    1200	     4.583
  38.520	        28	    1200	     5.292
  38.600	        29	    1200	     5.385
  38.680	        15	    1200	     3.873
  38.760	        30	    1200	     5.477
  38.840	        16	    1200	     4.000
  38.920	        26	    1200	     5.099
  39.000	        33	    1200	     5.745
  39.080	        34	    1200	     5.831
  39.160	        23	    1200	     4.796
  39.240	        29	    1200	     5.385
  39.320	        44	    1200	     6.633
  39.400	        46	    1200	     6.782
  39.480	        67	    1200	     8.185
  39.560	       134	    1200	    11.576
  39.640	       343	    1200	    18.520
  39.720	       439	    1200	    20.952
  39.800	       430	    1200	    20.736
  39.880	       302	    1200	    17.378
  39.960	       164	    1200	    12.806
  40.040	        93	    1200	     9.644
  40.120	        61	    1200	     7.810
  40.200	        35	    1200	     5.916
  40.280	        39	    1200	     6.245
  40.360	        37	    1200	     6.083
  40.440	        27	    1200	     5.196
  40.520	        18	    1200	     4.243
  40.600	        28	    1200	     5.292
  40.680	        23	    1200	     4.796
  40.760	        19	    1200	     4.359
  40.840	        30	    1200	     5.477
  40.920	        28	    1200	     5.292
  41.000	        18	    1200	     4.243
  41.080	        18	    1200	     4.243
  41.160	        25	    1200	     5.000
  41.240	        30	    1200	     5.477
  41.320	        35	    1200	     5.916
  41.400	        24	    1200	     4.899
  41.480	        31	    1200	     5.568
  41.560	        30	    1200	     5.477
  41.640	        26	    1200	     5.099
  41.720	        18	    1200	     4.243
  41.800	        19	    1200	     4.359
  41.880	        22	    1200	     4.690
  41.960	        18	    1200	     4.243
  42.040	        15	    1200	     3.873
  42.120	        19	    1200	     4.359
  42.200	        16	    1200	     4.000
  42.280	        20	    1200	     4.472
  42.360	        16	    1200	     4.000
  42.440	        19	    1200	     4.359
  42.520	        28	    1200	     5.292
  42.600	        25	    1200	     5.000
  42.680	        23	    1200	     4.796
  42.760	        12	    1200	     3.464
  42.840	        18	    1200	     4.243
  42.920	        17	    1200	     4.123
  43.000	        17	    1200	     4.123
  43.080	        26	    1200	     5.099
  43.160	        21	    1200	     4.583
  43.240	        15	    1200	     3.873
  43.320	        14	    1200	     3.742
  43.400	        18	    1200	     4.243
  43.480	        16	    1200	     4.000
  43.560	        17	    1200	     4.123
  43.640	        20	    1200	     4.472
  43.720	        22	    1200	     4.690
  43.800	        28	    1200	     5.292
  43.880	        16	    1200	     4.000
  43.960	        16	    1200	     4.000
  44.040	        17	    1200	     4.123
  44.120	        19	    1200	     4.359
  44.200	        20	    1200	     4.472
  44.280	        16	    1200	     4.000
  44.360	        21	    1200	     4.583
  44.440	        15	    1200	     3.873
  44.520	        20	    1200	     4.472
  44.600	        22	    1200	     4.690
  44.680	        17	    1200	     4.123
  44.760	        22	    1200	     4.690
  44.840	        24	    1200	     4.899
  44.920	        12	    1200	     3.464
  45.000	        27	    1200	     5.196
  45.080	        14	    1200	     3.742
  45.160	        22	    1200	     4.690
  45.240	        32	    1200	     5.657
  45.320	        25	    1200	     5.000
  45.400	        28	    1200	     5.292
  45.480	        26	    1200	     5.099
  45.560	        45	    1200	     6.708
  45.640	        44	    1200	     6.633
  45.720	        63	    1200	     7.937
  45.800	        74	    1200	     8.602
  45.880	       118	    1200	    10.863
  45.960	       148	    1200	    12.166
  46.040	       284	    1200	    16.852
  46.120	       555	    1200	    23.558
  46.200	       898	    1200	    29.967
  46.280	       993	    1200	    31.512
  46.360	       798	    1200	    28.249
  46.440	       521	    1200	    22.825
  46.520	       276	    1200	    16.613
  46.600	       157	    1200	    12.530
  46.680	        95	    1200	     9.747
  46.760	        62	    1200	     7.874
  46.840	        59	    1200	     7.681
  46.920	        40	    1200	     6.325
  47.000	        35	    1200	     5.916
  47.080	        22	    1200	     4.690
  47.160	        24	    1200	     4.899
  47.240	        38	    1200	     6.164
  47.320	        33	    1200	     5.745
  47.400	        24	    1200	     4.899
  47.480	        27	    1200	     5.196
  47.560	        21	    1200	     4.583
  47.640	        26	    1200	     5.099
  47.720	        20	    1200	     4.472
  47.800	        22	    1200	     4.690
  47.880	        22	    1200	     4.690
  47.960	        32	    1200	     5.657
  48.040	        19	    1200	     4.359
  48.120	        18	    1200	     4.243
  48.200	        12	    1200	     3.464
  48.280	        19	    1200	     4.359
  48.360	        23	    1200	     4.796
  48.440	        12	    1200	     3.464
  48.520	        13	    1200	     3.606
  48.600	        15	    1200	     3.873
  48.680	        12	    1200	     3.464
  48.760	        21	    1200	     4.583
  48.840	        24	    1200	     4.899
  48.920	        20	    1200	     4.472
  49.000	        19	    1200	     4.359
  49.080	        19	    1200	     4.359
  49.160	        20	    1200	     4.472
  49.240	        18	    1200	     4.243
  49.320	        13	    1200	     3.606
  49.400	        18	    1200	     4.243
  49.480	        19	    1200	     4.359
  49.560	        23	    1200	     4.796
  49.640	        10	    1200	     3.162
  49.720	        12	    1200	     3.464
  49.800	        15	    1200	     3.873
  49.880	        12	    1200	     3.464
  49.960	        13	    1200	     3.606
  50.040	        19	    1200	     4.359
  50.120	        13	    1200	     3.606
  50.200	        17	    1200	     4.123
  50.280	        19	    1200	     4.359
  50.360	        16	    1200	     4.000
  50.440	        15	    1200	     3.873
  50.520	        15	    1200	     3.873
  50.600	        14	    1200	     3.742
  50.680	        18	    1200	     4.243
  50.760	        12	    1200	     3.464
  50.840	        14	    1200	     3.742
  50.920	        17	    1200	     4.123
  51.000	        12	    1200	     3.464
  51.080	        13	    1200	     3.606
  51.160	        12	    1200	     3.464
  51.240	        16	    1200	     4.000
  51.320	        12	    1200	     3.464
  51.400	        13	    1200	     3.606
  51.480	        13	    1200	     3.606
  51.560	        18	    1200	     4.243
  51.640	        15	    1200	     3.873
  51.720	        20	    1200	     4.472
  51.800	        22	    1200	     4.690
  51.880	        24	    1200	     4.899
  51.960	        36	    1200	     6.000
  52.040	        41	    1200	     6.403
  52.120	        56	    1200	     7.483
  52.200	        65	    1200	     8.062
  52.280	        51	    1200	     7.141
  52.360	        37	    1200	     6.083
  52.440	        26	    1200	     5.099
  52.520	        16	    1200	     4.000
  52.600	        19	    1200	     4.359
  52.680	        20	    1200	     4.472
  52.760	        18	    1200	     4.243
  52.840	        15	    1200	     3.873
  52.920	        24	    1200	     4.899
  53.000	        10	    1200	     3.162
  53.080	        12	    1200	     3.464
  53.160	        18	    1200	     4.243
  53.240	        18	    1200	     4.243
  53.320	        20	    1200	     4.472
  53.400	        17	    1200	     4.123
  53.480	        13	    1200	     3.606
  53.560	        14	    1200	     3.742
  53.640	        15	    1200	     3.873
  53.720	        16	    1200	     4.000
  53.800	        12	    1200	     3.464
  53.880	        13	    1200	     3.606
  53.960	         8	    1200	     2.828
  54.040	        16	    1200	     4.000
  54.120	        16	    1200	     4.000
  54.200	         8	    1200	     2.828
  54.280	        17	    1200	     4.123
  54.360	        20	    1200	     4.472
  54.440	        19	    1200	     4.359
  54.520	        19	    1200	     4.359
  54.600	        17	    1200	     4.123
  54.680	        20	    1200	     4.472
  54.760	        11	    1200	     3.317
  54.840	        17	    1200	     4.123
  54.920	        27	    1200	     5.196
  55.000	        16	    1200	     4.000
  55.080	         9	    1200	     3.000
  55.160	        12	    1200	     3.464
  55.240	        16	    1200	     4.000
  55.320	        15	    1200	     3.873
  55.400	        15	    1200	     3.873
  55.480	        16	    1200	     4.000
  55.560	        15	    1200	     3.873
  55.640	        16	    1200	     4.000
  55.720	        18	    1200	     4.243
  55.800	        16	    1200	     4.000
  55.880	        16	    1200	     4.000
  55.960	        17	    1200	     4.123
  56.040	        22	    1200	     4.690
  56.120	        27	    1200	     5.196
  56.200	        18	    1200	     4.243
  56.280	        18	    1200	     4.243
  56.360	        25	    1200	     5.000
  56.440	        26	    1200	     5.099
  56.520	        34	    1200	     5.831
  56.600	        24	    1200	     4.899
  56.680	        32	    1200	     5.657
  56.760	        51	    1200	     7.141
  56.840	        51	    1200	     7.141
  56.920	        52	    1200	     7.211
  57.000	        57	    1200	     7.550
  57.080	        80	    1200	     8.944
  57.160	       105	    1200	    10.247
  57.240	       146	    1200	    12.083
  57.320	       262	    1200	    16.186
  57.400	       465	    1200	    21.564
  57.480	       747	    1200	    27.331
  57.560	       899	    1200	    29.983
  57.640	       860	    1200	    29.326
  57.720	       686	    1200	    26.192
  57.800	       478	    1200	    21.863
  57.880	       286	    1200	    16.912
  57.960	       160	    1200	    12.649
  58.040	        82	    1200	     9.055
  58.120	        71	    1200	     8.426
  58.200	        46	    1200	     6.782
  58.280	        39	    1200	     6.245
  58.360	        40	    1200	     6.325
  58.440	        25	    1200	     5.000
  58.520	        17	    1200	     4.123
  58.600	        38	    1200	     6.164
  58.680	        32	    1200	     5.657
  58.760	        18	    1200	     4.243
  58.840	        26	    1200	     5.099
  58.920	        23	    1200	     4.796
  59.000	        16	    1200	     4.000
  59.080	        25	    1200	     5.000
  59.160	        22	    1200	     4.690
  59.240	        19	    1200	     4.359
  59.320	        24	    1200	     4.899
  59.400	        14	    1200	     3.742
  59.480	        21	    1200	     4.583
  59.560	        20	    1200	     4.472
  59.640	        15	    1200	     3.873
  59.720	        22	    1200	     4.690
  59.800	        26	    1200	     5.099
  59.880	        21	    1200	     4.583
  59.960	        25	    1200	     5.000
  60.040	        15	    1200	     3.873
  60.120	        19	    1200	     4.359
  60.200	        17	    1200	     4.123
  60.280	        16	    1200	     4.000
  60.360	        18	    1200	     4.243
  60.440	        21	    1200	     4.583
  60.520	        22	    1200	     4.690
  60.600	        18	    1200	     4.243
  60.680	        13	    1200	     3.606
  60.760	        22	    1200	     4.690
  60.840	        18	    1200	     4.243
  60.920	        16	    1200	     4.000
  61.000	        15	    1200	     3.873
  61.080	        16	    1200	     4.000
  61.160	        18	    1200	     4.243
  61.240	        17	    1200	     4.123
  61.320	        20	    1200	     4.472
  61.400	        17	    1200	     4.123
  61.480	        19	    1200	     4.359
  61.560	        12	    1200	     3.464
  61.640	        12	    1200	     3.464
  61.720	        15	    1200	     3.873
  61.800	        17	    1200	     4.123
  61.880	        23	    1200	     4.796
  61.960	        19	    1200	     4.359
  62.040	        15	    1200	     3.873
  62.120	        20	    1200	     4.472
  62.200	        24	    1200	     4.899
  62.280	        15	    1200	     3.873
  62.360	        19	    1200	     4.359
  62.440	        15	    1200	     3.873
  62.520	        18	    1200	     4.243
  62.600	        13	    1200	     3.606
  62.680	        15	    1200	     3.873
  62.760	        18	    1200	     4.243
  62.840	        19	    1200	     4.359
  62.920	        18	    1200	     4.243
  63.000	        23	    1200	     4.796
  63.080	        19	    1200	     4.359
  63.160	        14	    1200	     3.742
  63.240	        24	    1200	     4.899
  63.320	        18	    1200	     4.243
  63.400	        14	    1200	     3.742
  63.480	        27	    1200	     5.196
  63.560	        19	    1200	     4.359
  63.640	        22	    1200	     4.690
  63.720	        16	    1200	     4.000
  63.800	        16	    1200	     4.000
  63.880	        22	    1200	     4.690
  63.960	        16	    1200	     4.000
  64.040	        22	    1200	     4.690
  64.120	        23	    1200	     4.796
  64.200	        16	    1200	     4.000
  64.280	        16	    1200	     4.000
  64.360	        23	    1200	     4.796
  64.440	        13	    1200	     3.606
  64.520	        21	    1200	     4.583
  64.600	        18	    1200	     4.243
  64.680	        17	    1200	     4.123
  64.760	        17	    1200	     4.123
  64.840	        21	    1200	     4.583
  64.920	        19	    1200	     4.359
  65.000	        18	    1200	     4.243
  65.080	        16	    1200	     4.000
  65.160	        23	    1200	     4.796
  65.240	        15	    1200	     3.873
  65.320	        15	    1200	     3.873
  65.400	         6	    1200	     2.449
  65.480	        14	    1200	     3.742
  65.560	        23	    1200	     4.796
  65.640	        12	    1200	     3.464
  65.720	        17	    1200	     4.123
  65.800	        23	    1200	     4.796
  65.880	        16	    1200	     4.000
  65.960	        17	    1200	     4.123
  66.040	        15	    1200	     3.873
  66.120	        10	    1200	     3.162
  66.200	        20	    1200	     4.472
  66.280	        28	    1200	     5.292
  66.360	        27	    1200	     5.196
  66.440	        27	    1200	     5.196
  66.520	        15	    1200	     3.873
  66.600	        22	    1200	     4.690
  66.680	        25	    1200	     5.000
  66.760	        36	    1200	     6.000
  66.840	        32	    1200	     5.657
  66.920	        31	    1200	     5.568
  67.000	        34	    1200	     5.831
  67.080	        38	    1200	     6.164
  67.160	        56	    1200	     7.483
  67.240	       105	    1200	    10.247
  67.320	       127	    1200	    11.269
  67.400	       184	    1200	    13.565
  67.480	       333	    1200	    18.248
  67.560	       420	    1200	    20.494
  67.640	       453	    1200	    21.284
  67.720	       409	    1200	    20.224
  67.800	       324	    1200	    18.000
  67.880	       260	    1200	    16.125
  67.960	       153	    1200	    12.369
  68.040	        94	    1200	     9.695
  68.120	        67	    1200	     8.185
  68.200	        42	    1200	     6.481
  68.280	        34	    1200	     5.831
  68.360	        31	    1200	     5.568
  68.440	        32	    1200	     5.657
  68.520	        18	    1200	     4.243
  68.600	        22	    1200	     4.690
  68.680	        27	    1200	     5.196
  68.760	        26	    1200	     5.099
  68.840	        17	    1200	     4.123
  68.920	        18	    1200	     4.243
  69.000	        21	    1200	     4.583
  69.080	        16	    1200	     4.000
  69.160	        19	    1200	     4.359
  69.240	        19	    1200	     4.359
  69.320	        19	    1200	     4.359
  69.400	        12	    1200	     3.464
  69.480	        18	    1200	     4.243
  69.560	        13	    1200	     3.606
  69.640	         9	    1200	     3.000
  69.720	        14	    1200	     3.742
  69.800	        25	    1200	     5.000
  69.880	        20	    1200	     4.472
  69.960	        17	    1200	     4.123
  70.040	        17	    1200	     4.123
  70.120	        23	    1200	     4.796
  70.200	        10	    1200	     3.162
  70.280	        15	    1200	     3.873
  70.360	        17	    1200	     4.123
  70.440	        18	    1200	     4.243
  70.520	        20	    1200	     4.472
  70.600	        15	    1200	     3.873
  70.680	        14	    1200	     3.742
  70.760	        14	    1200	     3.742
  70.840	        11	    1200	     3.317
  70.920	        16	    1200	     4.000
  71.000	        14	    1200	     3.742
  71.080	        21	    1200	     4.583
  71.160	         9	    1200	     3.000
  71.240	        14	    1200	     3.742
  71.320	        20	    1200	     4.472
  71.400	        13	    1200	     3.606
  71.480	        10	    1200	     3.162
  71.560	        12	    1200	     3.464
  71.640	        10	    1200	     3.162
  71.720	        15	    1200	     3.873
  71.800	        15	    1200	     3.873
  71.880	         9	    1200	     3.000
  71.960	        18	    1200	     4.243
  72.040	        22	    1200	     4.690
  72.120	        21	    1200	     4.583
  72.200	        26	    1200	     5.099
  72.280	        33	    1200	     5.745
  72.360	        35	    1200	     5.916
  72.440	        45	    1200	     6.708
  72.520	        51	    1200	     7.141
  72.600	        31	    1200	     5.568
  72.680	        29	    1200	     5.385
  72.760	        27	    1200	     5.196
  72.840	        13	    1200	     3.606
  72.920	        22	    1200	     4.690
  73.000	        14	    1200	     3.742
  73.080	        13	    1200	     3.606
  73.160	         9	    1200	     3.000
  73.240	        13	    1200	     3.606
  73.320	        18	    1200	     4.243
  73.400	        18	    1200	     4.243
  73.480	         8	    1200	     2.828
  73.560	        18	    1200	     4.243
  73.640	        13	    1200	     3.606
  73.720	         9	    1200	     3.000
  73.800	         8	    1200	     2.828
  73.880	        14	    1200	     3.742
  73.960	         5	    1200	     2.236
  74.040	        14	    1200	     3.742
  74.120	        14	    1200	     3.742
  74.200	        14	    1200	     3.742
  74.280	        10	    1200	     3.162
  74.360	        12	    1200	     3.464
  74.440	        18	    1200	     4.243
  74.520	        14	    1200	     3.742
  74.600	        13	    1200	     3.606
  74.680	        10	    1200	     3.162
  74.760	        15	    1200	     3.873
  74.840	        13	    1200	     3.606
  74.920	        15	    1200	     3.873
  75.000	        14	    1200	     3.742
  75.080	        11	    1200	     3.317
  75.160	        16	    1200	     4.000
  75.240	        17	    1200	     4.123
  75.320	        18	    1200	     4.243
  75.400	        19	    1200	     4.359
  75.480	        20	    1200	     4.472
  75.560	        14	    1200	     3.742
  75.640	        15	    1200	     3.873
  75.720	        21	    1200	     4.583
  75.800	        10	    1200	     3.162
  75.880	        12	    1200	     3.464
  75.960	        23	    1200	     4.796
  76.040	        17	    1200	     4.123
  76.120	        16	    1200	     4.000
  76.200	        28	    1200	     5.292
  76.280	        31	    1200	     5.568
  76.360	        36	    1200	     6.000
  76.440	        38	    1200	     6.164
  76.520	        43	    1200	     6.557
  76.600	        73	    1200	     8.544
  76.680	       126	    1200	    11.225
  76.760	       146	    1200	    12.083
  76.840	       239	    1200	    15.460
  76.920	       272	    1200	    16.492
  77.000	       324	    1200	    18.000
  77.080	       284	    1200	    16.852
  77.160	       258	    1200	    16.062
  77.240	       214	    1200	    14.629
  77.320	       144	    1200	    12.000
  77.400	        93	    1200	     9.644
  77.480	        63	    1200	     7.937
  77.560	        53	    1200	     7.280
  77.640	        35	    1200	     5.916
  77.720	        26	    1200	     5.099
  77.800	        21	    1200	     4.583
  77.880	        22	    1200	     4.690
  77.960	        24	    1200	     4.899
  78.040	        23	    1200	     4.796
  78.120	        26	    1200	     5.099
  78.200	        24	    1200	     4.899
  78.280	        14	    1200	     3.742
  78.360	        19	    1200	     4.359
  78.440	        17	    1200	     4.123
  78.520	        16	    1200	     4.000
  78.600	         7	    1200	     2.646
  78.680	        16	    1200	     4.000
  78.760	        15	    1200	     3.873
  78.840	        14	    1200	     3.742
  78.920	        27	    1200	     5.196
  79.000	        21	    1200	     4.583
  79.080	        13	    1200	     3.606
  79.160	        18	    1200	     4.243
  79.240	        15	    1200	     3.873
  79.320	        18	    1200	     4.243
  79.400	        14	    1200	     3.742
  79.480	        14	    1200	     3.742
  79.560	        13	    1200	     3.606
  79.640	        14	    1200	     3.742
  79.720	        15	    1200	     3.873
  79.800	        17	    1200	     4.123
  79.880	        14	    1200	     3.742
  79.960	        13	    1200	     3.606
  80.040	        14	    1200	     3.742
  80.120	        22	    1200	     4.690
  80.200	        18	    1200	     4.243
  80.280	        32	    1200	     5.657
  80.360	        21	    1200	     4.583
  80.440	        13	    1200	     3.606
  80.520	        20	    1200	     4.472
  80.600	        23	    1200	     4.796
  80.680	        18	    1200	     4.243
  80.760	        19	    1200	     4.359
  80.840	        12	    1200	     3.464
  80.920	        26	    1200	     5.099
  81.000	        25	    1200	     5.000
  81.080	        22	    1200	     4.690
  81.160	        35	    1200	     5.916
  81.240	        46	    1200	     6.782
  81.320	        72	    1200	     8.485
  81.400	        85	    1200	     9.220
  81.480	        94	    1200	     9.695
  81.560	        88	    1200	     9.381
  81.640	        86	    1200	     9.274
  81.720	        82	    1200	     9.055
  81.800	        64	    1200	     8.000
  81.880	        62	    1200	     7.874
  81.960	        36	    1200	     6.000
  82.040	        32	    1200	     5.657
  82.120	        24	    1200	     4.899
  82.200	        20	    1200	     4.472
  82.280	        26	    1200	     5.099
  82.360	        20	    1200	     4.472
  82.440	        30	    1200	     5.477
  82.520	        18	    1200	     4.243
  82.600	        19	    1200	     4.359
  82.680	        19	    1200	     4.359
  82.760	        19	    1200	     4.359
  82.840	        18	    1200	     4.243
  82.920	        16	    1200	     4.000
  83.000	        18	    1200	     4.243
  83.080	         7	    1200	     2.646
  83.160	        14	    1200	     3.742
  83.240	        21	    1200	     4.583
  83.320	        11	    1200	     3.317
  83.400	        15	    1200	     3.873
  83.480	        20	    1200	     4.472
  83.560	        16	    1200	     4.000
  83.640	        15	    1200	     3.873
  83.720	        18	    1200	     4.243
  83.800	         5	    1200	     2.236
  83.880	        14	    1200	     3.742
  83.960	        16	    1200	     4.000
  84.040	        14	    1200	     3.742
  84.120	        18	    1200	     4.243
  84.200	        22	    1200	     4.690
  84.280	        17	    1200	     4.123
  84.360	        15	    1200	     3.873
  84.440	        16	    1200	     4.000
  84.520	        19	    1200	     4.359
  84.600	        23	    1200	     4.796
  84.680	        13	    1200	     3.606
  84.760	        17	    1200	     4.123
  84.840	        17	    1200	     4.123
  84.920	        15	    1200	     3.873
  85.000	        20	    1200	     4.472
  85.080	        27	    1200	     5.196
  85.160	        17	    1200	     4.123
  85.240	        16	    1200	     4.000
  85.320	        14	    1200	     3.742
  85.400	        19	    1200	     4.359
  85.480	        23	    1200	     4.796
  85.560	        34	    1200	     5.831
  85.640	        32	    1200	     5.657
  85.720	        66	    1200	     8.124
  85.800	       103	    1200	    10.149
  85.880	       104	    1200	    10.198
  85.960	        99	    1200	     9.950
  86.040	       125	    1200	    11.180
  86.120	       110	    1200	    10.488
  86.200	        98	    1200	     9.899
  86.280	        82	    1200	     9.055
  86.360	        78	    1200	     8.832
  86.440	        55	    1200	     7.416
  86.520	        39	    1200	     6.245
  86.600	        33	    1200	     5.745
  86.680	        22	    1200	     4.690
  86.760	        19	    1200	     4.359
  86.840	        20	    1200	     4.472
  86.920	        22	    1200	     4.690
  87.000	        19	    1200	     4.359
  87.080	        19	    1200	     4.359
  87.160	        14	    1200	     3.742
  87.240	        20	    1200	     4.472
  87.320	        13	    1200	     3.606
  87.400	        20	    1200	     4.472
  87.480	         8	    1200	     2.828
  87.560	        17	    1200	     4.123
  87.640	        13	    1200	     3.606
  87.720	         7	    1200	     2.646
  87.800	        23	    1200	     4.796
  87.880	        13	    1200	     3.606
  87.960	        10	    1200	     3.162
  88.040	        10	    1200	     3.162
  88.120	        19	    1200	     4.359
  88.200	        13	    1200	     3.606
  88.280	        19	    1200	     4.359
  88.360	        13	    1200	     3.606
  88.440	        13	    1200	     3.606
  88.520	        20	    1200	     4.472
  88.600	        14	    1200	     3.742
  88.680	        17	    1200	     4.123
  88.760	        19	    1200	     4.359
  88.840	        16	    1200	     4.000
  88.920	        10	    1200	     3.162
  89.000	        17	    1200	     4.123
  89.080	        15	    1200	     3.873
  89.160	        25	    1200	     5.000
  89.240	        15	    1200	     3.873
  89.320	        19	    1200	     4.359
  89.400	        21	    1200	     4.583
  89.480	        15	    1200	     3.873
  89.560	        11	    1200	     3.317
  89.640	        19	    1200	     4.359
  89.720	        18	    1200	     4.243
  89.800	        15	    1200	     3.873
  89.880	        15	    1200	     3.873
  89.960	        15	    1200	     3.873
  90.000	        11	    1200	     3.317