File: Ex Situ XRD/STF6 Pristine.txt
         ID:

    Comment:

Scan Type: Normal
Start Angle: 15 deg.
Stop Angle: 90 deg.
Num Points: 3751
Step Size: 0.02 deg.
Datafile Res: 1600
Scan Rate: 1.000000
Scan Mode: Continuous
Wavelength: 1.540562

Diffractometer Optics:
		Detector:
			 Type: Fixed Slits
			 X2 Configuration: No
		Tube:
			 Type: Fixed Slits
			 X2 Configuration: No

Axis[0]
	 Selected   : no
	 Iterative  : no
	 Start Angle: 0.000000
	 Stop Angle : 0.000000
	 Step Size  : 0.000000
	 Oscillating: no

Axis[1]
	 Selected   : no
	 Iterative  : no
	 Start Angle: 0.000000
	 Stop Angle : 0.000000
	 Step Size  : 0.000000
	 Oscillating: no

Axis[2]
	 Selected   : no
	 Iterative  : no
	 Start Angle: 0.000000
	 Stop Angle : 0.000000
	 Step Size  : 0.000000
	 Oscillating: no

Axis[3]
	 Selected   : no
	 Iterative  : no
	 Start Angle: 0.000000
	 Stop Angle : 0.000000
	 Step Size  : 0.000000
	 Oscillating: no

Axis[4]
	 Selected   : no
	 Iterative  : no
	 Start Angle: 0.000000
	 Stop Angle : 0.000000
	 Step Size  : 0.000000
	 Oscillating: no

Axis[5]
	 Selected   : no
	 Iterative  : no
	 Start Angle: 0.000000
	 Stop Angle : 0.000000
	 Step Size  : 0.000000
	 Oscillating: no

Axis[6]
	 Selected   : no
	 Iterative  : no
	 Start Angle: 0.000000
	 Stop Angle : 0.000000
	 Step Size  : 0.000000
	 Oscillating: no

Axis[7]
	 Selected   : no
	 Iterative  : no
	 Start Angle: 0.000000
	 Stop Angle : 0.000000
	 Step Size  : 0.000000
	 Oscillating: no

Axis[8]
	 Selected   : no
	 Iterative  : no
	 Start Angle: 0.000000
	 Stop Angle : 0.000000
	 Step Size  : 0.000000
	 Oscillating: no

Axis[9]
	 Selected   : no
	 Iterative  : no
	 Start Angle: 0.000000
	 Stop Angle : 0.000000
	 Step Size  : 0.000000
	 Oscillating: no

	   Deg.    Counts 	   Time 	    ESD

Range 0
  15.000	        93	    1200	     9.644
  15.080	       119	    1200	    10.909
  15.160	       115	    1200	    10.724
  15.240	       104	    1200	    10.198
  15.320	        96	    1200	     9.798
  15.400	       125	    1200	    11.180
  15.480	       105	    1200	    10.247
  15.560	       106	    1200	    10.296
  15.640	       109	    1200	    10.440
  15.720	       116	    1200	    10.770
  15.800	        96	    1200	     9.798
  15.880	       102	    1200	    10.100
  15.960	       100	    1200	    10.000
  16.040	        90	    1200	     9.487
  16.120	       100	    1200	    10.000
  16.200	       101	    1200	    10.050
  16.280	       106	    1200	    10.296
  16.360	       105	    1200	    10.247
  16.440	       106	    1200	    10.296
  16.520	       134	    1200	    11.576
  16.600	        90	    1200	     9.487
  16.680	        99	    1200	     9.950
  16.760	       117	    1200	    10.817
  16.840	       117	    1200	    10.817
  16.920	        81	    1200	     9.000
  17.000	        91	    1200	     9.539
  17.080	        96	    1200	     9.798
  17.160	        95	    1200	     9.747
  17.240	       100	    1200	    10.000
  17.320	        85	    1200	     9.220
  17.400	        94	    1200	     9.695
  17.480	       114	    1200	    10.677
  17.560	       100	    1200	    10.000
  17.640	       100	    1200	    10.000
  17.720	       119	    1200	    10.909
  17.800	        92	    1200	     9.592
  17.880	        94	    1200	     9.695
  17.960	        79	    1200	     8.888
  18.040	        90	    1200	     9.487
  18.120	        98	    1200	     9.899
  18.200	        87	    1200	     9.327
  18.280	        90	    1200	     9.487
  18.360	        96	    1200	     9.798
  18.440	       103	    1200	    10.149
  18.520	        91	    1200	     9.539
  18.600	        84	    1200	     9.165
  18.680	        97	    1200	     9.849
  18.760	        98	    1200	     9.899
  18.840	        95	    1200	     9.747
  18.920	       112	    1200	    10.583
  19.000	        76	    1200	     8.718
  19.080	        96	    1200	     9.798
  19.160	        91	    1200	     9.539
  19.240	       104	    1200	    10.198
  19.320	        71	    1200	     8.426
  19.400	        88	    1200	     9.381
  19.480	        90	    1200	     9.487
  19.560	        76	    1200	     8.718
  19.640	       108	    1200	    10.392
  19.720	        94	    1200	     9.695
  19.800	        97	    1200	     9.849
  19.880	        91	    1200	     9.539
  19.960	        92	    1200	     9.592
  20.040	       100	    1200	    10.000
  20.120	        87	    1200	     9.327
  20.200	        84	    1200	     9.165
  20.280	        89	    1200	     9.434
  20.360	        82	    1200	     9.055
  20.440	       108	    1200	    10.392
  20.520	        82	    1200	     9.055
  20.600	       100	    1200	    10.000
  20.680	        93	    1200	     9.644
  20.760	        92	    1200	     9.592
  20.840	       104	    1200	    10.198
  20.920	        80	    1200	     8.944
  21.000	        70	    1200	     8.367
  21.080	        98	    1200	     9.899
  21.160	        89	    1200	     9.434
  21.240	       100	    1200	    10.000
  21.320	        97	    1200	     9.849
  21.400	        97	    1200	     9.849
  21.480	        73	    1200	     8.544
  21.560	       100	    1200	    10.000
  21.640	        84	    1200	     9.165
  21.720	        76	    1200	     8.718
  21.800	        95	    1200	     9.747
  21.880	        98	    1200	     9.899
  21.960	        99	    1200	     9.950
  22.040	        76	    1200	     8.718
  22.120	        84	    1200	     9.165
  22.200	        85	    1200	     9.220
  22.280	        85	    1200	     9.220
  22.360	        97	    1200	     9.849
  22.440	        94	    1200	     9.695
  22.520	       106	    1200	    10.296
  22.600	       147	    1200	    12.124
  22.680	       151	    1200	    12.288
  22.760	       119	    1200	    10.909
  22.840	       108	    1200	    10.392
  22.920	        81	    1200	     9.000
  23.000	        81	    1200	     9.000
  23.080	        73	    1200	     8.544
  23.160	        88	    1200	     9.381
  23.240	        78	    1200	     8.832
  23.320	        90	    1200	     9.487
  23.400	        74	    1200	     8.602
  23.480	        99	    1200	     9.950
  23.560	        94	    1200	     9.695
  23.640	        83	    1200	     9.110
  23.720	        78	    1200	     8.832
  23.800	        74	    1200	     8.602
  23.880	        68	    1200	     8.246
  23.960	        92	    1200	     9.592
  24.040	        81	    1200	     9.000
  24.120	        79	    1200	     8.888
  24.200	        76	    1200	     8.718
  24.280	        69	    1200	     8.307
  24.360	        78	    1200	     8.832
  24.440	        95	    1200	     9.747
  24.520	        69	    1200	     8.307
  24.600	        75	    1200	     8.660
  24.680	        75	    1200	     8.660
  24.760	        76	    1200	     8.718
  24.840	        90	    1200	     9.487
  24.920	        67	    1200	     8.185
  25.000	        70	    1200	     8.367
  25.080	        71	    1200	     8.426
  25.160	        59	    1200	     7.681
  25.240	        74	    1200	     8.602
  25.320	        73	    1200	     8.544
  25.400	        79	    1200	     8.888
  25.480	        76	    1200	     8.718
  25.560	        75	    1200	     8.660
  25.640	        87	    1200	     9.327
  25.720	        69	    1200	     8.307
  25.800	        62	    1200	     7.874
  25.880	        70	    1200	     8.367
  25.960	        61	    1200	     7.810
  26.040	        62	    1200	     7.874
  26.120	        54	    1200	     7.348
  26.200	        50	    1200	     7.071
  26.280	        60	    1200	     7.746
  26.360	        78	    1200	     8.832
  26.440	        69	    1200	     8.307
  26.520	        59	    1200	     7.681
  26.600	        53	    1200	     7.280
  26.680	        58	    1200	     7.616
  26.760	        54	    1200	     7.348
  26.840	        65	    1200	     8.062
  26.920	        61	    1200	     7.810
  27.000	        62	    1200	     7.874
  27.080	        52	    1200	     7.211
  27.160	        42	    1200	     6.481
  27.240	        49	    1200	     7.000
  27.320	        45	    1200	     6.708
  27.400	        59	    1200	     7.681
  27.480	        76	    1200	     8.718
  27.560	        65	    1200	     8.062
  27.640	        55	    1200	     7.416
  27.720	        57	    1200	     7.550
  27.800	        58	    1200	     7.616
  27.880	        69	    1200	     8.307
  27.960	        60	    1200	     7.746
  28.040	        44	    1200	     6.633
  28.120	        46	    1200	     6.782
  28.200	        47	    1200	     6.856
  28.280	        50	    1200	     7.071
  28.360	        46	    1200	     6.782
  28.440	        66	    1200	     8.124
  28.520	        48	    1200	     6.928
  28.600	        45	    1200	     6.708
  28.680	        49	    1200	     7.000
  28.760	        47	    1200	     6.856
  28.840	        47	    1200	     6.856
  28.920	        38	    1200	     6.164
  29.000	        51	    1200	     7.141
  29.080	        47	    1200	     6.856
  29.160	        55	    1200	     7.416
  29.240	        39	    1200	     6.245
  29.320	        46	    1200	     6.782
  29.400	        59	    1200	     7.681
  29.480	        53	    1200	     7.280
  29.560	        49	    1200	     7.000
  29.640	        47	    1200	     6.856
  29.720	        50	    1200	     7.071
  29.800	        35	    1200	     5.916
  29.880	        27	    1200	     5.196
  29.960	        54	    1200	     7.348
  30.040	        43	    1200	     6.557
  30.120	        37	    1200	     6.083
  30.200	        51	    1200	     7.141
  30.280	        47	    1200	     6.856
  30.360	        54	    1200	     7.348
  30.440	        36	    1200	     6.000
  30.520	        49	    1200	     7.000
  30.600	        41	    1200	     6.403
  30.680	        54	    1200	     7.348
  30.760	        52	    1200	     7.211
  30.840	        57	    1200	     7.550
  30.920	        51	    1200	     7.141
  31.000	        43	    1200	     6.557
  31.080	        71	    1200	     8.426
  31.160	        61	    1200	     7.810
  31.240	        59	    1200	     7.681
  31.320	        54	    1200	     7.348
  31.400	        58	    1200	     7.616
  31.480	        64	    1200	     8.000
  31.560	        75	    1200	     8.660
  31.640	        77	    1200	     8.775
  31.720	        96	    1200	     9.798
  31.800	       111	    1200	    10.536
  31.880	       131	    1200	    11.446
  31.960	       165	    1200	    12.845
  32.040	       253	    1200	    15.906
  32.120	       664	    1200	    25.768
  32.200	      1163	    1200	    34.103
  32.280	      2046	    1200	    45.233
  32.360	      3191	    1200	    56.489
  32.440	      3048	    1200	    55.209
  32.520	      1649	    1200	    40.608
  32.600	       680	    1200	    26.077
  32.680	       297	    1200	    17.234
  32.760	       172	    1200	    13.115
  32.840	       119	    1200	    10.909
  32.920	       102	    1200	    10.100
  33.000	        84	    1200	     9.165
  33.080	        86	    1200	     9.274
  33.160	        64	    1200	     8.000
  33.240	        72	    1200	     8.485
  33.320	        67	    1200	     8.185
  33.400	        57	    1200	     7.550
  33.480	        49	    1200	     7.000
  33.560	        49	    1200	     7.000
  33.640	        57	    1200	     7.550
  33.720	        57	    1200	     7.550
  33.800	        51	    1200	     7.141
  33.880	        57	    1200	     7.550
  33.960	        54	    1200	     7.348
  34.040	        41	    1200	     6.403
  34.120	        59	    1200	     7.681
  34.200	        38	    1200	     6.164
  34.280	        42	    1200	     6.481
  34.360	        40	    1200	     6.325
  34.440	        48	    1200	     6.928
  34.520	        40	    1200	     6.325
  34.600	        39	    1200	     6.245
  34.680	        41	    1200	     6.403
  34.760	        43	    1200	     6.557
  34.840	        40	    1200	     6.325
  34.920	        34	    1200	     5.831
  35.000	        28	    1200	     5.292
  35.080	        39	    1200	     6.245
  35.160	        56	    1200	     7.483
  35.240	        30	    1200	     5.477
  35.320	        44	    1200	     6.633
  35.400	        34	    1200	     5.831
  35.480	        38	    1200	     6.164
  35.560	        46	    1200	     6.782
  35.640	        41	    1200	     6.403
  35.720	        31	    1200	     5.568
  35.800	        31	    1200	     5.568
  35.880	        40	    1200	     6.325
  35.960	        34	    1200	     5.831
  36.040	        31	    1200	     5.568
  36.120	        31	    1200	     5.568
  36.200	        34	    1200	     5.831
  36.280	        31	    1200	     5.568
  36.360	        36	    1200	     6.000
  36.440	        30	    1200	     5.477
  36.520	        27	    1200	     5.196
  36.600	        42	    1200	     6.481
  36.680	        32	    1200	     5.657
  36.760	        35	    1200	     5.916
  36.840	        21	    1200	     4.583
  36.920	        21	    1200	     4.583
  37.000	        22	    1200	     4.690
  37.080	        28	    1200	     5.292
  37.160	        26	    1200	     5.099
  37.240	        35	    1200	     5.916
  37.320	        28	    1200	     5.292
  37.400	        29	    1200	     5.385
  37.480	        31	    1200	     5.568
  37.560	        24	    1200	     4.899
  37.640	        23	    1200	     4.796
  37.720	        30	    1200	     5.477
  37.800	        19	    1200	     4.359
  37.880	        24	    1200	     4.899
  37.960	        29	    1200	     5.385
  38.040	        37	    1200	     6.083
  38.120	        29	    1200	     5.385
  38.200	        24	    1200	     4.899
  38.280	        37	    1200	     6.083
  38.360	        29	    1200	     5.385
  38.440	        22	    1200	     4.690
  38.520	        27	    1200	     5.196
  38.600	        19	    1200	     4.359
  38.680	        28	    1200	     5.292
  38.760	        35	    1200	     5.916
  38.840	        34	    1200	     5.831
  38.920	        35	    1200	     5.916
  39.000	        21	    1200	     4.583
  39.080	        32	    1200	     5.657
  39.160	        29	    1200	     5.385
  39.240	        31	    1200	     5.568
  39.320	        26	    1200	     5.099
  39.400	        46	    1200	     6.782
  39.480	        44	    1200	     6.633
  39.560	        51	    1200	     7.141
  39.640	        94	    1200	     9.695
  39.720	       153	    1200	    12.369
  39.800	       228	    1200	    15.100
  39.880	       377	    1200	    19.416
  39.960	       504	    1200	    22.450
  40.040	       492	    1200	    22.181
  40.120	       374	    1200	    19.339
  40.200	       165	    1200	    12.845
  40.280	        79	    1200	     8.888
  40.360	        47	    1200	     6.856
  40.440	        38	    1200	     6.164
  40.520	        32	    1200	     5.657
  40.600	        33	    1200	     5.745
  40.680	        31	    1200	     5.568
  40.760	        33	    1200	     5.745
  40.840	        30	    1200	     5.477
  40.920	        24	    1200	     4.899
  41.000	        29	    1200	     5.385
  41.080	        22	    1200	     4.690
  41.160	        26	    1200	     5.099
  41.240	        27	    1200	     5.196
  41.320	        27	    1200	     5.196
  41.400	        25	    1200	     5.000
  41.480	        35	    1200	     5.916
  41.560	        37	    1200	     6.083
  41.640	        20	    1200	     4.472
  41.720	        29	    1200	     5.385
  41.800	        21	    1200	     4.583
  41.880	        23	    1200	     4.796
  41.960	        20	    1200	     4.472
  42.040	        26	    1200	     5.099
  42.120	        22	    1200	     4.690
  42.200	        34	    1200	     5.831
  42.280	        22	    1200	     4.690
  42.360	        20	    1200	     4.472
  42.440	        20	    1200	     4.472
  42.520	        34	    1200	     5.831
  42.600	        30	    1200	     5.477
  42.680	        34	    1200	     5.831
  42.760	        27	    1200	     5.196
  42.840	        21	    1200	     4.583
  42.920	        20	    1200	     4.472
  43.000	        21	    1200	     4.583
  43.080	        21	    1200	     4.583
  43.160	        28	    1200	     5.292
  43.240	        18	    1200	     4.243
  43.320	        30	    1200	     5.477
  43.400	        30	    1200	     5.477
  43.480	        21	    1200	     4.583
  43.560	        31	    1200	     5.568
  43.640	        25	    1200	     5.000
  43.720	        19	    1200	     4.359
  43.800	        31	    1200	     5.568
  43.880	        26	    1200	     5.099
  43.960	        31	    1200	     5.568
  44.040	        27	    1200	     5.196
  44.120	        27	    1200	     5.196
  44.200	        21	    1200	     4.583
  44.280	        32	    1200	     5.657
  44.360	        28	    1200	     5.292
  44.440	        36	    1200	     6.000
  44.520	        24	    1200	     4.899
  44.600	        27	    1200	     5.196
  44.680	        32	    1200	     5.657
  44.760	        31	    1200	     5.568
  44.840	        33	    1200	     5.745
  44.920	        33	    1200	     5.745
  45.000	        27	    1200	     5.196
  45.080	        33	    1200	     5.745
  45.160	        29	    1200	     5.385
  45.240	        25	    1200	     5.000
  45.320	        41	    1200	     6.403
  45.400	        18	    1200	     4.243
  45.480	        30	    1200	     5.477
  45.560	        28	    1200	     5.292
  45.640	        39	    1200	     6.245
  45.720	        44	    1200	     6.633
  45.800	        46	    1200	     6.782
  45.880	        55	    1200	     7.416
  45.960	        58	    1200	     7.616
  46.040	        92	    1200	     9.592
  46.120	       134	    1200	    11.576
  46.200	       256	    1200	    16.000
  46.280	       338	    1200	    18.385
  46.360	       531	    1200	    23.043
  46.440	       750	    1200	    27.386
  46.520	      1114	    1200	    33.377
  46.600	      1103	    1200	    33.211
  46.680	       799	    1200	    28.267
  46.760	       478	    1200	    21.863
  46.840	       270	    1200	    16.432
  46.920	       171	    1200	    13.077
  47.000	        92	    1200	     9.592
  47.080	        66	    1200	     8.124
  47.160	        59	    1200	     7.681
  47.240	        57	    1200	     7.550
  47.320	        39	    1200	     6.245
  47.400	        38	    1200	     6.164
  47.480	        33	    1200	     5.745
  47.560	        33	    1200	     5.745
  47.640	        32	    1200	     5.657
  47.720	        29	    1200	     5.385
  47.800	        24	    1200	     4.899
  47.880	        43	    1200	     6.557
  47.960	        26	    1200	     5.099
  48.040	        29	    1200	     5.385
  48.120	        36	    1200	     6.000
  48.200	        23	    1200	     4.796
  48.280	        17	    1200	     4.123
  48.360	        32	    1200	     5.657
  48.440	        25	    1200	     5.000
  48.520	        24	    1200	     4.899
  48.600	        22	    1200	     4.690
  48.680	        26	    1200	     5.099
  48.760	        26	    1200	     5.099
  48.840	        31	    1200	     5.568
  48.920	        25	    1200	     5.000
  49.000	        23	    1200	     4.796
  49.080	        19	    1200	     4.359
  49.160	        29	    1200	     5.385
  49.240	        35	    1200	     5.916
  49.320	        23	    1200	     4.796
  49.400	        31	    1200	     5.568
  49.480	        16	    1200	     4.000
  49.560	        25	    1200	     5.000
  49.640	        29	    1200	     5.385
  49.720	        21	    1200	     4.583
  49.800	        28	    1200	     5.292
  49.880	        24	    1200	     4.899
  49.960	        33	    1200	     5.745
  50.040	        29	    1200	     5.385
  50.120	        29	    1200	     5.385
  50.200	        26	    1200	     5.099
  50.280	        24	    1200	     4.899
  50.360	        23	    1200	     4.796
  50.440	        18	    1200	     4.243
  50.520	        24	    1200	     4.899
  50.600	        23	    1200	     4.796
  50.680	        18	    1200	     4.243
  50.760	        21	    1200	     4.583
  50.840	        24	    1200	     4.899
  50.920	        26	    1200	     5.099
  51.000	        23	    1200	     4.796
  51.080	        22	    1200	     4.690
  51.160	        26	    1200	     5.099
  51.240	        18	    1200	     4.243
  51.320	        18	    1200	     4.243
  51.400	        27	    1200	     5.196
  51.480	        29	    1200	     5.385
  51.560	        26	    1200	     5.099
  51.640	        29	    1200	     5.385
  51.720	        23	    1200	     4.796
  51.800	        23	    1200	     4.796
  51.880	        22	    1200	     4.690
  51.960	        13	    1200	     3.606
  52.040	        41	    1200	     6.403
  52.120	        38	    1200	     6.164
  52.200	        49	    1200	     7.000
  52.280	        40	    1200	     6.325
  52.360	        51	    1200	     7.141
  52.440	        70	    1200	     8.367
  52.520	        72	    1200	     8.485
  52.600	        66	    1200	     8.124
  52.680	        38	    1200	     6.164
  52.760	        29	    1200	     5.385
  52.840	        38	    1200	     6.164
  52.920	        29	    1200	     5.385
  53.000	        24	    1200	     4.899
  53.080	        32	    1200	     5.657
  53.160	        20	    1200	     4.472
  53.240	        35	    1200	     5.916
  53.320	        19	    1200	     4.359
  53.400	        20	    1200	     4.472
  53.480	        21	    1200	     4.583
  53.560	        18	    1200	     4.243
  53.640	        19	    1200	     4.359
  53.720	        16	    1200	     4.000
  53.800	        23	    1200	     4.796
  53.880	        23	    1200	     4.796
  53.960	        18	    1200	     4.243
  54.040	        17	    1200	     4.123
  54.120	        23	    1200	     4.796
  54.200	        19	    1200	     4.359
  54.280	        20	    1200	     4.472
  54.360	        30	    1200	     5.477
  54.440	        16	    1200	     4.000
  54.520	        21	    1200	     4.583
  54.600	        19	    1200	     4.359
  54.680	        18	    1200	     4.243
  54.760	        14	    1200	     3.742
  54.840	        28	    1200	     5.292
  54.920	        31	    1200	     5.568
  55.000	        24	    1200	     4.899
  55.080	        19	    1200	     4.359
  55.160	        22	    1200	     4.690
  55.240	        20	    1200	     4.472
  55.320	        29	    1200	     5.385
  55.400	        22	    1200	     4.690
  55.480	        12	    1200	     3.464
  55.560	        30	    1200	     5.477
  55.640	        21	    1200	     4.583
  55.720	        24	    1200	     4.899
  55.800	        36	    1200	     6.000
  55.880	        24	    1200	     4.899
  55.960	        33	    1200	     5.745
  56.040	        24	    1200	     4.899
  56.120	        25	    1200	     5.000
  56.200	        30	    1200	     5.477
  56.280	        22	    1200	     4.690
  56.360	        27	    1200	     5.196
  56.440	        30	    1200	     5.477
  56.520	        29	    1200	     5.385
  56.600	        26	    1200	     5.099
  56.680	        29	    1200	     5.385
  56.760	        31	    1200	     5.568
  56.840	        30	    1200	     5.477
  56.920	        44	    1200	     6.633
  57.000	        33	    1200	     5.745
  57.080	        39	    1200	     6.245
  57.160	        49	    1200	     7.000
  57.240	        64	    1200	     8.000
  57.320	        78	    1200	     8.832
  57.400	        93	    1200	     9.644
  57.480	       169	    1200	    13.000
  57.560	       268	    1200	    16.371
  57.640	       336	    1200	    18.330
  57.720	       402	    1200	    20.050
  57.800	       601	    1200	    24.515
  57.880	       865	    1200	    29.411
  57.960	       960	    1200	    30.984
  58.040	       933	    1200	    30.545
  58.120	       678	    1200	    26.038
  58.200	       436	    1200	    20.881
  58.280	       279	    1200	    16.703
  58.360	       153	    1200	    12.369
  58.440	        96	    1200	     9.798
  58.520	        74	    1200	     8.602
  58.600	        63	    1200	     7.937
  58.680	        43	    1200	     6.557
  58.760	        52	    1200	     7.211
  58.840	        34	    1200	     5.831
  58.920	        31	    1200	     5.568
  59.000	        39	    1200	     6.245
  59.080	        37	    1200	     6.083
  59.160	        35	    1200	     5.916
  59.240	        28	    1200	     5.292
  59.320	        42	    1200	     6.481
  59.400	        37	    1200	     6.083
  59.480	        25	    1200	     5.000
  59.560	        30	    1200	     5.477
  59.640	        30	    1200	     5.477
  59.720	        29	    1200	     5.385
  59.800	        24	    1200	     4.899
  59.880	        31	    1200	     5.568
  59.960	        48	    1200	     6.928
  60.040	        32	    1200	     5.657
  60.120	        31	    1200	     5.568
  60.200	        38	    1200	     6.164
  60.280	        29	    1200	     5.385
  60.360	        30	    1200	     5.477
  60.440	        27	    1200	     5.196
  60.520	        24	    1200	     4.899
  60.600	        39	    1200	     6.245
  60.680	        26	    1200	     5.099
  60.760	        12	    1200	     3.464
  60.840	        27	    1200	     5.196
  60.920	        27	    1200	     5.196
  61.000	        25	    1200	     5.000
  61.080	        24	    1200	     4.899
  61.160	        29	    1200	     5.385
  61.240	        33	    1200	     5.745
  61.320	        25	    1200	     5.000
  61.400	        27	    1200	     5.196
  61.480	        16	    1200	     4.000
  61.560	        20	    1200	     4.472
  61.640	        29	    1200	     5.385
  61.720	        19	    1200	     4.359
  61.800	        28	    1200	     5.292
  61.880	        19	    1200	     4.359
  61.960	        29	    1200	     5.385
  62.040	        16	    1200	     4.000
  62.120	        27	    1200	     5.196
  62.200	        19	    1200	     4.359
  62.280	        28	    1200	     5.292
  62.360	        23	    1200	     4.796
  62.440	        25	    1200	     5.000
  62.520	        25	    1200	     5.000
  62.600	        15	    1200	     3.873
  62.680	        28	    1200	     5.292
  62.760	        28	    1200	     5.292
  62.840	        27	    1200	     5.196
  62.920	        22	    1200	     4.690
  63.000	        26	    1200	     5.099
  63.080	        28	    1200	     5.292
  63.160	        34	    1200	     5.831
  63.240	        19	    1200	     4.359
  63.320	        28	    1200	     5.292
  63.400	        29	    1200	     5.385
  63.480	        25	    1200	     5.000
  63.560	        22	    1200	     4.690
  63.640	        20	    1200	     4.472
  63.720	        17	    1200	     4.123
  63.800	        20	    1200	     4.472
  63.880	        32	    1200	     5.657
  63.960	        34	    1200	     5.831
  64.040	        39	    1200	     6.245
  64.120	        30	    1200	     5.477
  64.200	        22	    1200	     4.690
  64.280	        28	    1200	     5.292
  64.360	        29	    1200	     5.385
  64.440	        17	    1200	     4.123
  64.520	        22	    1200	     4.690
  64.600	        29	    1200	     5.385
  64.680	        20	    1200	     4.472
  64.760	        25	    1200	     5.000
  64.840	        21	    1200	     4.583
  64.920	        15	    1200	     3.873
  65.000	        18	    1200	     4.243
  65.080	        20	    1200	     4.472
  65.160	        24	    1200	     4.899
  65.240	        26	    1200	     5.099
  65.320	        19	    1200	     4.359
  65.400	        32	    1200	     5.657
  65.480	        20	    1200	     4.472
  65.560	        19	    1200	     4.359
  65.640	        26	    1200	     5.099
  65.720	        26	    1200	     5.099
  65.800	        33	    1200	     5.745
  65.880	        15	    1200	     3.873
  65.960	        35	    1200	     5.916
  66.040	        31	    1200	     5.568
  66.120	        30	    1200	     5.477
  66.200	        33	    1200	     5.745
  66.280	        30	    1200	     5.477
  66.360	        20	    1200	     4.472
  66.440	        19	    1200	     4.359
  66.520	        31	    1200	     5.568
  66.600	        30	    1200	     5.477
  66.680	        22	    1200	     4.690
  66.760	        32	    1200	     5.657
  66.840	        28	    1200	     5.292
  66.920	        33	    1200	     5.745
  67.000	        39	    1200	     6.245
  67.080	        32	    1200	     5.657
  67.160	        36	    1200	     6.000
  67.240	        38	    1200	     6.164
  67.320	        45	    1200	     6.708
  67.400	        64	    1200	     8.000
  67.480	        67	    1200	     8.185
  67.560	       135	    1200	    11.619
  67.640	       150	    1200	    12.247
  67.720	       166	    1200	    12.884
  67.800	       200	    1200	    14.142
  67.880	       279	    1200	    16.703
  67.960	       344	    1200	    18.547
  68.040	       456	    1200	    21.354
  68.120	       440	    1200	    20.976
  68.200	       423	    1200	    20.567
  68.280	       320	    1200	    17.889
  68.360	       239	    1200	    15.460
  68.440	       145	    1200	    12.042
  68.520	       120	    1200	    10.954
  68.600	        66	    1200	     8.124
  68.680	        53	    1200	     7.280
  68.760	        48	    1200	     6.928
  68.840	        27	    1200	     5.196
  68.920	        29	    1200	     5.385
  69.000	        34	    1200	     5.831
  69.080	        32	    1200	     5.657
  69.160	        20	    1200	     4.472
  69.240	        32	    1200	     5.657
  69.320	        29	    1200	     5.385
  69.400	        26	    1200	     5.099
  69.480	        32	    1200	     5.657
  69.560	        28	    1200	     5.292
  69.640	        31	    1200	     5.568
  69.720	        18	    1200	     4.243
  69.800	        32	    1200	     5.657
  69.880	        26	    1200	     5.099
  69.960	        27	    1200	     5.196
  70.040	        24	    1200	     4.899
  70.120	        18	    1200	     4.243
  70.200	        33	    1200	     5.745
  70.280	        29	    1200	     5.385
  70.360	        22	    1200	     4.690
  70.440	        18	    1200	     4.243
  70.520	        25	    1200	     5.000
  70.600	        26	    1200	     5.099
  70.680	        33	    1200	     5.745
  70.760	        30	    1200	     5.477
  70.840	        22	    1200	     4.690
  70.920	        30	    1200	     5.477
  71.000	        20	    1200	     4.472
  71.080	        27	    1200	     5.196
  71.160	        21	    1200	     4.583
  71.240	        26	    1200	     5.099
  71.320	        31	    1200	     5.568
  71.400	        23	    1200	     4.796
  71.480	        22	    1200	     4.690
  71.560	        21	    1200	     4.583
  71.640	        27	    1200	     5.196
  71.720	        20	    1200	     4.472
  71.800	        32	    1200	     5.657
  71.880	        18	    1200	     4.243
  71.960	        24	    1200	     4.899
  72.040	        21	    1200	     4.583
  72.120	        22	    1200	     4.690
  72.200	        27	    1200	     5.196
  72.280	        27	    1200	     5.196
  72.360	        40	    1200	     6.325
  72.440	        28	    1200	     5.292
  72.520	        24	    1200	     4.899
  72.600	        42	    1200	     6.481
  72.680	        26	    1200	     5.099
  72.760	        41	    1200	     6.403
  72.840	        37	    1200	     6.083
  72.920	        38	    1200	     6.164
  73.000	        41	    1200	     6.403
  73.080	        35	    1200	     5.916
  73.160	        30	    1200	     5.477
  73.240	        30	    1200	     5.477
  73.320	        25	    1200	     5.000
  73.400	        24	    1200	     4.899
  73.480	        25	    1200	     5.000
  73.560	        28	    1200	     5.292
  73.640	        24	    1200	     4.899
  73.720	        22	    1200	     4.690
  73.800	        13	    1200	     3.606
  73.880	        16	    1200	     4.000
  73.960	        19	    1200	     4.359
  74.040	        33	    1200	     5.745
  74.120	        20	    1200	     4.472
  74.200	        19	    1200	     4.359
  74.280	        26	    1200	     5.099
  74.360	        16	    1200	     4.000
  74.440	        14	    1200	     3.742
  74.520	        19	    1200	     4.359
  74.600	        27	    1200	     5.196
  74.680	        19	    1200	     4.359
  74.760	        14	    1200	     3.742
  74.840	        21	    1200	     4.583
  74.920	        13	    1200	     3.606
  75.000	        20	    1200	     4.472
  75.080	        26	    1200	     5.099
  75.160	        12	    1200	     3.464
  75.240	        12	    1200	     3.464
  75.320	        28	    1200	     5.292
  75.400	        26	    1200	     5.099
  75.480	        16	    1200	     4.000
  75.560	        13	    1200	     3.606
  75.640	        23	    1200	     4.796
  75.720	        30	    1200	     5.477
  75.800	        12	    1200	     3.464
  75.880	        25	    1200	     5.000
  75.960	        28	    1200	     5.292
  76.040	        16	    1200	     4.000
  76.120	        27	    1200	     5.196
  76.200	        30	    1200	     5.477
  76.280	        33	    1200	     5.745
  76.360	        25	    1200	     5.000
  76.440	        19	    1200	     4.359
  76.520	        27	    1200	     5.196
  76.600	        37	    1200	     6.083
  76.680	        37	    1200	     6.083
  76.760	        51	    1200	     7.141
  76.840	        64	    1200	     8.000
  76.920	        64	    1200	     8.000
  77.000	       107	    1200	    10.344
  77.080	       103	    1200	    10.149
  77.160	       135	    1200	    11.619
  77.240	       161	    1200	    12.689
  77.320	       177	    1200	    13.304
  77.400	       264	    1200	    16.248
  77.480	       317	    1200	    17.804
  77.560	       273	    1200	    16.523
  77.640	       263	    1200	    16.217
  77.720	       228	    1200	    15.100
  77.800	       180	    1200	    13.416
  77.880	       136	    1200	    11.662
  77.960	       107	    1200	    10.344
  78.040	        69	    1200	     8.307
  78.120	        60	    1200	     7.746
  78.200	        48	    1200	     6.928
  78.280	        45	    1200	     6.708
  78.360	        26	    1200	     5.099
  78.440	        34	    1200	     5.831
  78.520	        35	    1200	     5.916
  78.600	        29	    1200	     5.385
  78.680	        29	    1200	     5.385
  78.760	        35	    1200	     5.916
  78.840	        25	    1200	     5.000
  78.920	        16	    1200	     4.000
  79.000	        27	    1200	     5.196
  79.080	        23	    1200	     4.796
  79.160	        19	    1200	     4.359
  79.240	        31	    1200	     5.568
  79.320	        26	    1200	     5.099
  79.400	        23	    1200	     4.796
  79.480	        20	    1200	     4.472
  79.560	        18	    1200	     4.243
  79.640	        29	    1200	     5.385
  79.720	        22	    1200	     4.690
  79.800	        30	    1200	     5.477
  79.880	        17	    1200	     4.123
  79.960	        19	    1200	     4.359
  80.040	        21	    1200	     4.583
  80.120	        21	    1200	     4.583
  80.200	        16	    1200	     4.000
  80.280	        26	    1200	     5.099
  80.360	        31	    1200	     5.568
  80.440	        26	    1200	     5.099
  80.520	        16	    1200	     4.000
  80.600	        23	    1200	     4.796
  80.680	        22	    1200	     4.690
  80.760	        20	    1200	     4.472
  80.840	        20	    1200	     4.472
  80.920	        16	    1200	     4.000
  81.000	        24	    1200	     4.899
  81.080	        20	    1200	     4.472
  81.160	        24	    1200	     4.899
  81.240	        27	    1200	     5.196
  81.320	        25	    1200	     5.000
  81.400	        38	    1200	     6.164
  81.480	        40	    1200	     6.325
  81.560	        44	    1200	     6.633
  81.640	        36	    1200	     6.000
  81.720	        54	    1200	     7.348
  81.800	        36	    1200	     6.000
  81.880	        49	    1200	     7.000
  81.960	        84	    1200	     9.165
  82.040	        83	    1200	     9.110
  82.120	        81	    1200	     9.000
  82.200	        69	    1200	     8.307
  82.280	        76	    1200	     8.718
  82.360	        57	    1200	     7.550
  82.440	        54	    1200	     7.348
  82.520	        40	    1200	     6.325
  82.600	        31	    1200	     5.568
  82.680	        28	    1200	     5.292
  82.760	        28	    1200	     5.292
  82.840	        20	    1200	     4.472
  82.920	        34	    1200	     5.831
  83.000	        22	    1200	     4.690
  83.080	        27	    1200	     5.196
  83.160	        19	    1200	     4.359
  83.240	        21	    1200	     4.583
  83.320	        16	    1200	     4.000
  83.400	        15	    1200	     3.873
  83.480	        19	    1200	     4.359
  83.560	        18	    1200	     4.243
  83.640	        28	    1200	     5.292
  83.720	        23	    1200	     4.796
  83.800	        29	    1200	     5.385
  83.880	        20	    1200	     4.472
  83.960	        23	    1200	     4.796
  84.040	        17	    1200	     4.123
  84.120	        27	    1200	     5.196
  84.200	        18	    1200	     4.243
  84.280	        20	    1200	     4.472
  84.360	        16	    1200	     4.000
  84.440	        21	    1200	     4.583
  84.520	        19	    1200	     4.359
  84.600	        23	    1200	     4.796
  84.680	        22	    1200	     4.690
  84.760	        26	    1200	     5.099
  84.840	        25	    1200	     5.000
  84.920	        20	    1200	     4.472
  85.000	        28	    1200	     5.292
  85.080	        32	    1200	     5.657
  85.160	        12	    1200	     3.464
  85.240	        21	    1200	     4.583
  85.320	        21	    1200	     4.583
  85.400	        18	    1200	     4.243
  85.480	        32	    1200	     5.657
  85.560	        26	    1200	     5.099
  85.640	        26	    1200	     5.099
  85.720	        21	    1200	     4.583
  85.800	        30	    1200	     5.477
  85.880	        27	    1200	     5.196
  85.960	        42	    1200	     6.481
  86.040	        47	    1200	     6.856
  86.120	        55	    1200	     7.416
  86.200	        52	    1200	     7.211
  86.280	        73	    1200	     8.544
  86.360	        70	    1200	     8.367
  86.440	        93	    1200	     9.644
  86.520	       115	    1200	    10.724
  86.600	       138	    1200	    11.747
  86.680	       124	    1200	    11.136
  86.760	       114	    1200	    10.677
  86.840	        87	    1200	     9.327
  86.920	        87	    1200	     9.327
  87.000	        71	    1200	     8.426
  87.080	        57	    1200	     7.550
  87.160	        56	    1200	     7.483
  87.240	        35	    1200	     5.916
  87.320	        29	    1200	     5.385
  87.400	        33	    1200	     5.745
  87.480	        29	    1200	     5.385
  87.560	        23	    1200	     4.796
  87.640	        23	    1200	     4.796
  87.720	        23	    1200	     4.796
  87.800	        21	    1200	     4.583
  87.880	        25	    1200	     5.000
  87.960	        35	    1200	     5.916
  88.040	        21	    1200	     4.583
  88.120	        24	    1200	     4.899
  88.200	        27	    1200	     5.196
  88.280	        20	    1200	     4.472
  88.360	        19	    1200	     4.359
  88.440	        22	    1200	     4.690
  88.520	        22	    1200	     4.690
  88.600	        19	    1200	     4.359
  88.680	        18	    1200	     4.243
  88.760	        20	    1200	     4.472
  88.840	        23	    1200	     4.796
  88.920	        24	    1200	     4.899
  89.000	        17	    1200	     4.123
  89.080	        19	    1200	     4.359
  89.160	        10	    1200	     3.162
  89.240	        24	    1200	     4.899
  89.320	        19	    1200	     4.359
  89.400	        19	    1200	     4.359
  89.480	        23	    1200	     4.796
  89.560	        22	    1200	     4.690
  89.640	        17	    1200	     4.123
  89.720	        21	    1200	     4.583
  89.800	        25	    1200	     5.000
  89.880	        23	    1200	     4.796
  89.960	        26	    1200	     5.099
  90.000	        17	    1200	     4.123