File: Ex Situ XRD/STF6 850C 97H2 4Hr.txt
         ID:

    Comment:

Scan Type: Normal
Start Angle: 15 deg.
Stop Angle: 90 deg.
Num Points: 3751
Step Size: 0.02 deg.
Datafile Res: 1600
Scan Rate: 1.000000
Scan Mode: Continuous
Wavelength: 1.540562

Diffractometer Optics:
		Detector:
			 Type: Fixed Slits
			 X2 Configuration: No
		Tube:
			 Type: Fixed Slits
			 X2 Configuration: No

Axis[0]
	 Selected   : no
	 Iterative  : no
	 Start Angle: 0.000000
	 Stop Angle : 0.000000
	 Step Size  : 0.000000
	 Oscillating: no

Axis[1]
	 Selected   : no
	 Iterative  : no
	 Start Angle: 0.000000
	 Stop Angle : 0.000000
	 Step Size  : 0.000000
	 Oscillating: no

Axis[2]
	 Selected   : no
	 Iterative  : no
	 Start Angle: 0.000000
	 Stop Angle : 0.000000
	 Step Size  : 0.000000
	 Oscillating: no

Axis[3]
	 Selected   : no
	 Iterative  : no
	 Start Angle: 0.000000
	 Stop Angle : 0.000000
	 Step Size  : 0.000000
	 Oscillating: no

Axis[4]
	 Selected   : no
	 Iterative  : no
	 Start Angle: 0.000000
	 Stop Angle : 0.000000
	 Step Size  : 0.000000
	 Oscillating: no

Axis[5]
	 Selected   : no
	 Iterative  : no
	 Start Angle: 0.000000
	 Stop Angle : 0.000000
	 Step Size  : 0.000000
	 Oscillating: no

Axis[6]
	 Selected   : no
	 Iterative  : no
	 Start Angle: 0.000000
	 Stop Angle : 0.000000
	 Step Size  : 0.000000
	 Oscillating: no

Axis[7]
	 Selected   : no
	 Iterative  : no
	 Start Angle: 0.000000
	 Stop Angle : 0.000000
	 Step Size  : 0.000000
	 Oscillating: no

Axis[8]
	 Selected   : no
	 Iterative  : no
	 Start Angle: 0.000000
	 Stop Angle : 0.000000
	 Step Size  : 0.000000
	 Oscillating: no

Axis[9]
	 Selected   : no
	 Iterative  : no
	 Start Angle: 0.000000
	 Stop Angle : 0.000000
	 Step Size  : 0.000000
	 Oscillating: no

	   Deg.    Counts 	   Time 	    ESD

Range 0
  15.000	       116	    1200	    10.770
  15.080	       124	    1200	    11.136
  15.160	       105	    1200	    10.247
  15.240	       125	    1200	    11.180
  15.320	       111	    1200	    10.536
  15.400	       105	    1200	    10.247
  15.480	       107	    1200	    10.344
  15.560	       112	    1200	    10.583
  15.640	       111	    1200	    10.536
  15.720	        94	    1200	     9.695
  15.800	       101	    1200	    10.050
  15.880	       112	    1200	    10.583
  15.960	       120	    1200	    10.954
  16.040	       101	    1200	    10.050
  16.120	       109	    1200	    10.440
  16.200	       105	    1200	    10.247
  16.280	       104	    1200	    10.198
  16.360	        98	    1200	     9.899
  16.440	       117	    1200	    10.817
  16.520	        86	    1200	     9.274
  16.600	        96	    1200	     9.798
  16.680	       107	    1200	    10.344
  16.760	       103	    1200	    10.149
  16.840	        99	    1200	     9.950
  16.920	       115	    1200	    10.724
  17.000	       104	    1200	    10.198
  17.080	       102	    1200	    10.100
  17.160	       112	    1200	    10.583
  17.240	       101	    1200	    10.050
  17.320	       118	    1200	    10.863
  17.400	       120	    1200	    10.954
  17.480	       124	    1200	    11.136
  17.560	       106	    1200	    10.296
  17.640	        91	    1200	     9.539
  17.720	       113	    1200	    10.630
  17.800	       105	    1200	    10.247
  17.880	       123	    1200	    11.091
  17.960	        98	    1200	     9.899
  18.040	       112	    1200	    10.583
  18.120	       104	    1200	    10.198
  18.200	       129	    1200	    11.358
  18.280	       127	    1200	    11.269
  18.360	       115	    1200	    10.724
  18.440	       118	    1200	    10.863
  18.520	       117	    1200	    10.817
  18.600	       113	    1200	    10.630
  18.680	       114	    1200	    10.677
  18.760	       110	    1200	    10.488
  18.840	       108	    1200	    10.392
  18.920	       138	    1200	    11.747
  19.000	       112	    1200	    10.583
  19.080	       119	    1200	    10.909
  19.160	       109	    1200	    10.440
  19.240	       114	    1200	    10.677
  19.320	       115	    1200	    10.724
  19.400	       105	    1200	    10.247
  19.480	       112	    1200	    10.583
  19.560	       102	    1200	    10.100
  19.640	        93	    1200	     9.644
  19.720	       114	    1200	    10.677
  19.800	       115	    1200	    10.724
  19.880	       119	    1200	    10.909
  19.960	       114	    1200	    10.677
  20.040	       105	    1200	    10.247
  20.120	       102	    1200	    10.100
  20.200	       108	    1200	    10.392
  20.280	       113	    1200	    10.630
  20.360	       103	    1200	    10.149
  20.440	        94	    1200	     9.695
  20.520	        97	    1200	     9.849
  20.600	        95	    1200	     9.747
  20.680	        99	    1200	     9.950
  20.760	        99	    1200	     9.950
  20.840	       124	    1200	    11.136
  20.920	        95	    1200	     9.747
  21.000	        93	    1200	     9.644
  21.080	        98	    1200	     9.899
  21.160	       102	    1200	    10.100
  21.240	        94	    1200	     9.695
  21.320	       113	    1200	    10.630
  21.400	       119	    1200	    10.909
  21.480	       105	    1200	    10.247
  21.560	       109	    1200	    10.440
  21.640	       117	    1200	    10.817
  21.720	       102	    1200	    10.100
  21.800	       108	    1200	    10.392
  21.880	        98	    1200	     9.899
  21.960	        86	    1200	     9.274
  22.040	        89	    1200	     9.434
  22.120	        95	    1200	     9.747
  22.200	       115	    1200	    10.724
  22.280	       101	    1200	    10.050
  22.360	        84	    1200	     9.165
  22.440	       110	    1200	    10.488
  22.520	       109	    1200	    10.440
  22.600	       128	    1200	    11.314
  22.680	       136	    1200	    11.662
  22.760	       114	    1200	    10.677
  22.840	       125	    1200	    11.180
  22.920	       114	    1200	    10.677
  23.000	       137	    1200	    11.705
  23.080	       110	    1200	    10.488
  23.160	       111	    1200	    10.536
  23.240	        98	    1200	     9.899
  23.320	       111	    1200	    10.536
  23.400	        91	    1200	     9.539
  23.480	       109	    1200	    10.440
  23.560	        82	    1200	     9.055
  23.640	       113	    1200	    10.630
  23.720	        97	    1200	     9.849
  23.800	       114	    1200	    10.677
  23.880	        89	    1200	     9.434
  23.960	        91	    1200	     9.539
  24.040	        89	    1200	     9.434
  24.120	        93	    1200	     9.644
  24.200	        99	    1200	     9.950
  24.280	       108	    1200	    10.392
  24.360	       106	    1200	    10.296
  24.440	        99	    1200	     9.950
  24.520	       125	    1200	    11.180
  24.600	       117	    1200	    10.817
  24.680	        90	    1200	     9.487
  24.760	        93	    1200	     9.644
  24.840	        95	    1200	     9.747
  24.920	       100	    1200	    10.000
  25.000	        99	    1200	     9.950
  25.080	       101	    1200	    10.050
  25.160	       123	    1200	    11.091
  25.240	       107	    1200	    10.344
  25.320	        96	    1200	     9.798
  25.400	        83	    1200	     9.110
  25.480	       104	    1200	    10.198
  25.560	        96	    1200	     9.798
  25.640	        91	    1200	     9.539
  25.720	        95	    1200	     9.747
  25.800	        87	    1200	     9.327
  25.880	       106	    1200	    10.296
  25.960	        85	    1200	     9.220
  26.040	        85	    1200	     9.220
  26.120	        86	    1200	     9.274
  26.200	       117	    1200	    10.817
  26.280	       101	    1200	    10.050
  26.360	        86	    1200	     9.274
  26.440	        93	    1200	     9.644
  26.520	       102	    1200	    10.100
  26.600	       121	    1200	    11.000
  26.680	        68	    1200	     8.246
  26.760	        74	    1200	     8.602
  26.840	        74	    1200	     8.602
  26.920	        81	    1200	     9.000
  27.000	        70	    1200	     8.367
  27.080	        80	    1200	     8.944
  27.160	        92	    1200	     9.592
  27.240	        87	    1200	     9.327
  27.320	        76	    1200	     8.718
  27.400	        80	    1200	     8.944
  27.480	        75	    1200	     8.660
  27.560	        82	    1200	     9.055
  27.640	        76	    1200	     8.718
  27.720	        83	    1200	     9.110
  27.800	        84	    1200	     9.165
  27.880	        91	    1200	     9.539
  27.960	        68	    1200	     8.246
  28.040	        66	    1200	     8.124
  28.120	        77	    1200	     8.775
  28.200	        67	    1200	     8.185
  28.280	        73	    1200	     8.544
  28.360	        87	    1200	     9.327
  28.440	        68	    1200	     8.246
  28.520	        80	    1200	     8.944
  28.600	        70	    1200	     8.367
  28.680	        55	    1200	     7.416
  28.760	        63	    1200	     7.937
  28.840	        67	    1200	     8.185
  28.920	        67	    1200	     8.185
  29.000	        68	    1200	     8.246
  29.080	        68	    1200	     8.246
  29.160	        80	    1200	     8.944
  29.240	        69	    1200	     8.307
  29.320	        67	    1200	     8.185
  29.400	        58	    1200	     7.616
  29.480	        64	    1200	     8.000
  29.560	        79	    1200	     8.888
  29.640	        69	    1200	     8.307
  29.720	        44	    1200	     6.633
  29.800	        71	    1200	     8.426
  29.880	        61	    1200	     7.810
  29.960	        64	    1200	     8.000
  30.040	        63	    1200	     7.937
  30.120	        78	    1200	     8.832
  30.200	        72	    1200	     8.485
  30.280	        74	    1200	     8.602
  30.360	        73	    1200	     8.544
  30.440	        65	    1200	     8.062
  30.520	        67	    1200	     8.185
  30.600	        57	    1200	     7.550
  30.680	        62	    1200	     7.874
  30.760	        69	    1200	     8.307
  30.840	        71	    1200	     8.426
  30.920	        62	    1200	     7.874
  31.000	        60	    1200	     7.746
  31.080	        83	    1200	     9.110
  31.160	        86	    1200	     9.274
  31.240	       100	    1200	    10.000
  31.320	       114	    1200	    10.677
  31.400	       164	    1200	    12.806
  31.480	       273	    1200	    16.523
  31.560	       445	    1200	    21.095
  31.640	       652	    1200	    25.534
  31.720	       717	    1200	    26.777
  31.800	       580	    1200	    24.083
  31.880	       362	    1200	    19.026
  31.960	       257	    1200	    16.031
  32.040	       289	    1200	    17.000
  32.120	       591	    1200	    24.310
  32.200	      1177	    1200	    34.307
  32.280	      1561	    1200	    39.509
  32.360	      1234	    1200	    35.128
  32.440	       599	    1200	    24.474
  32.520	       232	    1200	    15.232
  32.600	       158	    1200	    12.570
  32.680	       120	    1200	    10.954
  32.760	       101	    1200	    10.050
  32.840	        76	    1200	     8.718
  32.920	        72	    1200	     8.485
  33.000	        58	    1200	     7.616
  33.080	        74	    1200	     8.602
  33.160	        77	    1200	     8.775
  33.240	        55	    1200	     7.416
  33.320	        50	    1200	     7.071
  33.400	        62	    1200	     7.874
  33.480	        60	    1200	     7.746
  33.560	        38	    1200	     6.164
  33.640	        51	    1200	     7.141
  33.720	        55	    1200	     7.416
  33.800	        53	    1200	     7.280
  33.880	        50	    1200	     7.071
  33.960	        44	    1200	     6.633
  34.040	        47	    1200	     6.856
  34.120	        47	    1200	     6.856
  34.200	        44	    1200	     6.633
  34.280	        42	    1200	     6.481
  34.360	        43	    1200	     6.557
  34.440	        54	    1200	     7.348
  34.520	        41	    1200	     6.403
  34.600	        55	    1200	     7.416
  34.680	        45	    1200	     6.708
  34.760	        32	    1200	     5.657
  34.840	        45	    1200	     6.708
  34.920	        38	    1200	     6.164
  35.000	        41	    1200	     6.403
  35.080	        38	    1200	     6.164
  35.160	        36	    1200	     6.000
  35.240	        35	    1200	     5.916
  35.320	        49	    1200	     7.000
  35.400	        32	    1200	     5.657
  35.480	        41	    1200	     6.403
  35.560	        36	    1200	     6.000
  35.640	        35	    1200	     5.916
  35.720	        22	    1200	     4.690
  35.800	        28	    1200	     5.292
  35.880	        31	    1200	     5.568
  35.960	        41	    1200	     6.403
  36.040	        30	    1200	     5.477
  36.120	        48	    1200	     6.928
  36.200	        39	    1200	     6.245
  36.280	        42	    1200	     6.481
  36.360	        42	    1200	     6.481
  36.440	        34	    1200	     5.831
  36.520	        31	    1200	     5.568
  36.600	        42	    1200	     6.481
  36.680	        25	    1200	     5.000
  36.760	        25	    1200	     5.000
  36.840	        41	    1200	     6.403
  36.920	        39	    1200	     6.245
  37.000	        42	    1200	     6.481
  37.080	        34	    1200	     5.831
  37.160	        28	    1200	     5.292
  37.240	        34	    1200	     5.831
  37.320	        31	    1200	     5.568
  37.400	        32	    1200	     5.657
  37.480	        45	    1200	     6.708
  37.560	        36	    1200	     6.000
  37.640	        34	    1200	     5.831
  37.720	        25	    1200	     5.000
  37.800	        34	    1200	     5.831
  37.880	        35	    1200	     5.916
  37.960	        36	    1200	     6.000
  38.040	        36	    1200	     6.000
  38.120	        27	    1200	     5.196
  38.200	        38	    1200	     6.164
  38.280	        29	    1200	     5.385
  38.360	        36	    1200	     6.000
  38.440	        37	    1200	     6.083
  38.520	        21	    1200	     4.583
  38.600	        29	    1200	     5.385
  38.680	        47	    1200	     6.856
  38.760	        32	    1200	     5.657
  38.840	        33	    1200	     5.745
  38.920	        27	    1200	     5.196
  39.000	        20	    1200	     4.472
  39.080	        33	    1200	     5.745
  39.160	        52	    1200	     7.211
  39.240	        40	    1200	     6.325
  39.320	        34	    1200	     5.831
  39.400	        39	    1200	     6.245
  39.480	        31	    1200	     5.568
  39.560	        52	    1200	     7.211
  39.640	        77	    1200	     8.775
  39.720	       140	    1200	    11.832
  39.800	       181	    1200	    13.454
  39.880	       198	    1200	    14.071
  39.960	       138	    1200	    11.747
  40.040	        75	    1200	     8.660
  40.120	        65	    1200	     8.062
  40.200	        49	    1200	     7.000
  40.280	        43	    1200	     6.557
  40.360	        34	    1200	     5.831
  40.440	        44	    1200	     6.633
  40.520	        33	    1200	     5.745
  40.600	        39	    1200	     6.245
  40.680	        48	    1200	     6.928
  40.760	        25	    1200	     5.000
  40.840	        36	    1200	     6.000
  40.920	        43	    1200	     6.557
  41.000	        66	    1200	     8.124
  41.080	        56	    1200	     7.483
  41.160	        92	    1200	     9.592
  41.240	       111	    1200	    10.536
  41.320	       105	    1200	    10.247
  41.400	       126	    1200	    11.225
  41.480	       107	    1200	    10.344
  41.560	        83	    1200	     9.110
  41.640	        90	    1200	     9.487
  41.720	        59	    1200	     7.681
  41.800	        66	    1200	     8.124
  41.880	        68	    1200	     8.246
  41.960	        71	    1200	     8.426
  42.040	        55	    1200	     7.416
  42.120	        66	    1200	     8.124
  42.200	        49	    1200	     7.000
  42.280	        55	    1200	     7.416
  42.360	        40	    1200	     6.325
  42.440	        37	    1200	     6.083
  42.520	        31	    1200	     5.568
  42.600	        23	    1200	     4.796
  42.680	        36	    1200	     6.000
  42.760	        30	    1200	     5.477
  42.840	        28	    1200	     5.292
  42.920	        22	    1200	     4.690
  43.000	        29	    1200	     5.385
  43.080	        34	    1200	     5.831
  43.160	        33	    1200	     5.745
  43.240	        17	    1200	     4.123
  43.320	        28	    1200	     5.292
  43.400	        27	    1200	     5.196
  43.480	        26	    1200	     5.099
  43.560	        31	    1200	     5.568
  43.640	        35	    1200	     5.916
  43.720	        28	    1200	     5.292
  43.800	        37	    1200	     6.083
  43.880	        30	    1200	     5.477
  43.960	        36	    1200	     6.000
  44.040	        53	    1200	     7.280
  44.120	        50	    1200	     7.071
  44.200	        55	    1200	     7.416
  44.280	        88	    1200	     9.381
  44.360	       102	    1200	    10.100
  44.440	       164	    1200	    12.806
  44.520	       262	    1200	    16.186
  44.600	       254	    1200	    15.937
  44.680	       204	    1200	    14.283
  44.760	       153	    1200	    12.369
  44.840	        90	    1200	     9.487
  44.920	        77	    1200	     8.775
  45.000	        40	    1200	     6.325
  45.080	        62	    1200	     7.874
  45.160	        34	    1200	     5.831
  45.240	        45	    1200	     6.708
  45.320	        42	    1200	     6.481
  45.400	        49	    1200	     7.000
  45.480	        43	    1200	     6.557
  45.560	        48	    1200	     6.928
  45.640	        43	    1200	     6.557
  45.720	        45	    1200	     6.708
  45.800	        43	    1200	     6.557
  45.880	        66	    1200	     8.124
  45.960	        71	    1200	     8.426
  46.040	        96	    1200	     9.798
  46.120	       176	    1200	    13.266
  46.200	       297	    1200	    17.234
  46.280	       562	    1200	    23.707
  46.360	       708	    1200	    26.608
  46.440	       736	    1200	    27.129
  46.520	       477	    1200	    21.840
  46.600	       278	    1200	    16.673
  46.680	       140	    1200	    11.832
  46.760	        83	    1200	     9.110
  46.840	        47	    1200	     6.856
  46.920	        53	    1200	     7.280
  47.000	        43	    1200	     6.557
  47.080	        33	    1200	     5.745
  47.160	        35	    1200	     5.916
  47.240	        27	    1200	     5.196
  47.320	        34	    1200	     5.831
  47.400	        27	    1200	     5.196
  47.480	        31	    1200	     5.568
  47.560	        16	    1200	     4.000
  47.640	        31	    1200	     5.568
  47.720	        22	    1200	     4.690
  47.800	        16	    1200	     4.000
  47.880	        24	    1200	     4.899
  47.960	        26	    1200	     5.099
  48.040	        23	    1200	     4.796
  48.120	        30	    1200	     5.477
  48.200	        26	    1200	     5.099
  48.280	        40	    1200	     6.325
  48.360	        25	    1200	     5.000
  48.440	        18	    1200	     4.243
  48.520	        18	    1200	     4.243
  48.600	        23	    1200	     4.796
  48.680	        16	    1200	     4.000
  48.760	        23	    1200	     4.796
  48.840	        20	    1200	     4.472
  48.920	        28	    1200	     5.292
  49.000	        26	    1200	     5.099
  49.080	        16	    1200	     4.000
  49.160	        13	    1200	     3.606
  49.240	        19	    1200	     4.359
  49.320	        13	    1200	     3.606
  49.400	        22	    1200	     4.690
  49.480	        16	    1200	     4.000
  49.560	        17	    1200	     4.123
  49.640	        20	    1200	     4.472
  49.720	        13	    1200	     3.606
  49.800	        13	    1200	     3.606
  49.880	         8	    1200	     2.828
  49.960	        18	    1200	     4.243
  50.040	        22	    1200	     4.690
  50.120	        15	    1200	     3.873
  50.200	        13	    1200	     3.606
  50.280	        16	    1200	     4.000
  50.360	        19	    1200	     4.359
  50.440	         9	    1200	     3.000
  50.520	        13	    1200	     3.606
  50.600	        17	    1200	     4.123
  50.680	        15	    1200	     3.873
  50.760	        19	    1200	     4.359
  50.840	        21	    1200	     4.583
  50.920	        14	    1200	     3.742
  51.000	        16	    1200	     4.000
  51.080	        19	    1200	     4.359
  51.160	        20	    1200	     4.472
  51.240	        16	    1200	     4.000
  51.320	        21	    1200	     4.583
  51.400	        14	    1200	     3.742
  51.480	        13	    1200	     3.606
  51.560	        23	    1200	     4.796
  51.640	        18	    1200	     4.243
  51.720	        14	    1200	     3.742
  51.800	        22	    1200	     4.690
  51.880	        12	    1200	     3.464
  51.960	        30	    1200	     5.477
  52.040	        30	    1200	     5.477
  52.120	        34	    1200	     5.831
  52.200	        45	    1200	     6.708
  52.280	        36	    1200	     6.000
  52.360	        50	    1200	     7.071
  52.440	        36	    1200	     6.000
  52.520	        43	    1200	     6.557
  52.600	        34	    1200	     5.831
  52.680	        32	    1200	     5.657
  52.760	        19	    1200	     4.359
  52.840	        22	    1200	     4.690
  52.920	        19	    1200	     4.359
  53.000	        19	    1200	     4.359
  53.080	        24	    1200	     4.899
  53.160	        24	    1200	     4.899
  53.240	        28	    1200	     5.292
  53.320	        24	    1200	     4.899
  53.400	        36	    1200	     6.000
  53.480	        38	    1200	     6.164
  53.560	        26	    1200	     5.099
  53.640	        42	    1200	     6.481
  53.720	        23	    1200	     4.796
  53.800	        31	    1200	     5.568
  53.880	        31	    1200	     5.568
  53.960	        29	    1200	     5.385
  54.040	        30	    1200	     5.477
  54.120	        40	    1200	     6.325
  54.200	        27	    1200	     5.196
  54.280	        26	    1200	     5.099
  54.360	        26	    1200	     5.099
  54.440	        25	    1200	     5.000
  54.520	        25	    1200	     5.000
  54.600	        18	    1200	     4.243
  54.680	        19	    1200	     4.359
  54.760	        31	    1200	     5.568
  54.840	        29	    1200	     5.385
  54.920	        19	    1200	     4.359
  55.000	        23	    1200	     4.796
  55.080	        32	    1200	     5.657
  55.160	        15	    1200	     3.873
  55.240	        24	    1200	     4.899
  55.320	        22	    1200	     4.690
  55.400	        30	    1200	     5.477
  55.480	        29	    1200	     5.385
  55.560	        33	    1200	     5.745
  55.640	        42	    1200	     6.481
  55.720	        42	    1200	     6.481
  55.800	        50	    1200	     7.071
  55.880	        51	    1200	     7.141
  55.960	        58	    1200	     7.616
  56.040	        73	    1200	     8.544
  56.120	        70	    1200	     8.367
  56.200	        98	    1200	     9.899
  56.280	        98	    1200	     9.899
  56.360	        99	    1200	     9.950
  56.440	        71	    1200	     8.426
  56.520	        54	    1200	     7.348
  56.600	        52	    1200	     7.211
  56.680	        46	    1200	     6.782
  56.760	        32	    1200	     5.657
  56.840	        50	    1200	     7.071
  56.920	        55	    1200	     7.416
  57.000	        58	    1200	     7.616
  57.080	        91	    1200	     9.539
  57.160	       148	    1200	    12.166
  57.240	       276	    1200	    16.613
  57.320	       408	    1200	    20.199
  57.400	       466	    1200	    21.587
  57.480	       476	    1200	    21.817
  57.560	       512	    1200	    22.627
  57.640	       463	    1200	    21.517
  57.720	       396	    1200	    19.900
  57.800	       273	    1200	    16.523
  57.880	       192	    1200	    13.856
  57.960	       149	    1200	    12.207
  58.040	        97	    1200	     9.849
  58.120	        84	    1200	     9.165
  58.200	        55	    1200	     7.416
  58.280	        45	    1200	     6.708
  58.360	        30	    1200	     5.477
  58.440	        29	    1200	     5.385
  58.520	        38	    1200	     6.164
  58.600	        39	    1200	     6.245
  58.680	        32	    1200	     5.657
  58.760	        27	    1200	     5.196
  58.840	        27	    1200	     5.196
  58.920	        18	    1200	     4.243
  59.000	        21	    1200	     4.583
  59.080	        27	    1200	     5.196
  59.160	        19	    1200	     4.359
  59.240	        28	    1200	     5.292
  59.320	        29	    1200	     5.385
  59.400	        39	    1200	     6.245
  59.480	        26	    1200	     5.099
  59.560	        30	    1200	     5.477
  59.640	        28	    1200	     5.292
  59.720	        23	    1200	     4.796
  59.800	        27	    1200	     5.196
  59.880	        20	    1200	     4.472
  59.960	        20	    1200	     4.472
  60.040	        20	    1200	     4.472
  60.120	        15	    1200	     3.873
  60.200	        18	    1200	     4.243
  60.280	        32	    1200	     5.657
  60.360	        14	    1200	     3.742
  60.440	        19	    1200	     4.359
  60.520	        28	    1200	     5.292
  60.600	        18	    1200	     4.243
  60.680	        22	    1200	     4.690
  60.760	        21	    1200	     4.583
  60.840	        21	    1200	     4.583
  60.920	        14	    1200	     3.742
  61.000	        18	    1200	     4.243
  61.080	        18	    1200	     4.243
  61.160	        23	    1200	     4.796
  61.240	        13	    1200	     3.606
  61.320	        27	    1200	     5.196
  61.400	         8	    1200	     2.828
  61.480	        25	    1200	     5.000
  61.560	        20	    1200	     4.472
  61.640	        20	    1200	     4.472
  61.720	        17	    1200	     4.123
  61.800	        20	    1200	     4.472
  61.880	        14	    1200	     3.742
  61.960	        16	    1200	     4.000
  62.040	        26	    1200	     5.099
  62.120	        11	    1200	     3.317
  62.200	        26	    1200	     5.099
  62.280	        16	    1200	     4.000
  62.360	        10	    1200	     3.162
  62.440	        21	    1200	     4.583
  62.520	        12	    1200	     3.464
  62.600	        17	    1200	     4.123
  62.680	        19	    1200	     4.359
  62.760	        28	    1200	     5.292
  62.840	        17	    1200	     4.123
  62.920	        15	    1200	     3.873
  63.000	        17	    1200	     4.123
  63.080	        14	    1200	     3.742
  63.160	        13	    1200	     3.606
  63.240	        19	    1200	     4.359
  63.320	        13	    1200	     3.606
  63.400	        15	    1200	     3.873
  63.480	        17	    1200	     4.123
  63.560	        20	    1200	     4.472
  63.640	        21	    1200	     4.583
  63.720	        25	    1200	     5.000
  63.800	        17	    1200	     4.123
  63.880	        26	    1200	     5.099
  63.960	        20	    1200	     4.472
  64.040	        23	    1200	     4.796
  64.120	        36	    1200	     6.000
  64.200	        27	    1200	     5.196
  64.280	        20	    1200	     4.472
  64.360	        30	    1200	     5.477
  64.440	        20	    1200	     4.472
  64.520	        23	    1200	     4.796
  64.600	        24	    1200	     4.899
  64.680	        32	    1200	     5.657
  64.760	        36	    1200	     6.000
  64.840	        37	    1200	     6.083
  64.920	        40	    1200	     6.325
  65.000	        32	    1200	     5.657
  65.080	        42	    1200	     6.481
  65.160	        27	    1200	     5.196
  65.240	        27	    1200	     5.196
  65.320	        26	    1200	     5.099
  65.400	        27	    1200	     5.196
  65.480	        27	    1200	     5.196
  65.560	        30	    1200	     5.477
  65.640	        17	    1200	     4.123
  65.720	        28	    1200	     5.292
  65.800	        30	    1200	     5.477
  65.880	        32	    1200	     5.657
  65.960	        41	    1200	     6.403
  66.040	        56	    1200	     7.483
  66.120	        35	    1200	     5.916
  66.200	        57	    1200	     7.550
  66.280	        70	    1200	     8.367
  66.360	       117	    1200	    10.817
  66.440	        90	    1200	     9.487
  66.520	       101	    1200	    10.050
  66.600	        77	    1200	     8.775
  66.680	        69	    1200	     8.307
  66.760	        52	    1200	     7.211
  66.840	        50	    1200	     7.071
  66.920	        46	    1200	     6.782
  67.000	        37	    1200	     6.083
  67.080	        44	    1200	     6.633
  67.160	        42	    1200	     6.481
  67.240	        48	    1200	     6.928
  67.320	        61	    1200	     7.810
  67.400	        68	    1200	     8.246
  67.480	        99	    1200	     9.950
  67.560	       164	    1200	    12.806
  67.640	       216	    1200	    14.697
  67.720	       277	    1200	    16.643
  67.800	       276	    1200	    16.613
  67.880	       251	    1200	    15.843
  67.960	       174	    1200	    13.191
  68.040	       145	    1200	    12.042
  68.120	        90	    1200	     9.487
  68.200	        68	    1200	     8.246
  68.280	        43	    1200	     6.557
  68.360	        31	    1200	     5.568
  68.440	        42	    1200	     6.481
  68.520	        27	    1200	     5.196
  68.600	        34	    1200	     5.831
  68.680	        24	    1200	     4.899
  68.760	        25	    1200	     5.000
  68.840	        24	    1200	     4.899
  68.920	        15	    1200	     3.873
  69.000	        25	    1200	     5.000
  69.080	        27	    1200	     5.196
  69.160	        17	    1200	     4.123
  69.240	        26	    1200	     5.099
  69.320	        22	    1200	     4.690
  69.400	        17	    1200	     4.123
  69.480	        15	    1200	     3.873
  69.560	        20	    1200	     4.472
  69.640	        19	    1200	     4.359
  69.720	        26	    1200	     5.099
  69.800	         9	    1200	     3.000
  69.880	        14	    1200	     3.742
  69.960	        19	    1200	     4.359
  70.040	        17	    1200	     4.123
  70.120	        14	    1200	     3.742
  70.200	        18	    1200	     4.243
  70.280	        17	    1200	     4.123
  70.360	        20	    1200	     4.472
  70.440	        11	    1200	     3.317
  70.520	        18	    1200	     4.243
  70.600	         9	    1200	     3.000
  70.680	        21	    1200	     4.583
  70.760	        12	    1200	     3.464
  70.840	        17	    1200	     4.123
  70.920	        13	    1200	     3.606
  71.000	        20	    1200	     4.472
  71.080	        21	    1200	     4.583
  71.160	        19	    1200	     4.359
  71.240	         8	    1200	     2.828
  71.320	        17	    1200	     4.123
  71.400	         7	    1200	     2.646
  71.480	        12	    1200	     3.464
  71.560	        12	    1200	     3.464
  71.640	        21	    1200	     4.583
  71.720	        13	    1200	     3.606
  71.800	        11	    1200	     3.317
  71.880	        17	    1200	     4.123
  71.960	        13	    1200	     3.606
  72.040	        21	    1200	     4.583
  72.120	        23	    1200	     4.796
  72.200	        20	    1200	     4.472
  72.280	        19	    1200	     4.359
  72.360	        20	    1200	     4.472
  72.440	        16	    1200	     4.000
  72.520	        33	    1200	     5.745
  72.600	        33	    1200	     5.745
  72.680	        32	    1200	     5.657
  72.760	        28	    1200	     5.292
  72.840	        31	    1200	     5.568
  72.920	        20	    1200	     4.472
  73.000	        30	    1200	     5.477
  73.080	        19	    1200	     4.359
  73.160	        37	    1200	     6.083
  73.240	        18	    1200	     4.243
  73.320	        33	    1200	     5.745
  73.400	        26	    1200	     5.099
  73.480	        25	    1200	     5.000
  73.560	        39	    1200	     6.245
  73.640	        35	    1200	     5.916
  73.720	        30	    1200	     5.477
  73.800	        27	    1200	     5.196
  73.880	        35	    1200	     5.916
  73.960	        25	    1200	     5.000
  74.040	        36	    1200	     6.000
  74.120	        27	    1200	     5.196
  74.200	        38	    1200	     6.164
  74.280	        36	    1200	     6.000
  74.360	        34	    1200	     5.831
  74.440	        36	    1200	     6.000
  74.520	        31	    1200	     5.568
  74.600	        33	    1200	     5.745
  74.680	        19	    1200	     4.359
  74.760	        25	    1200	     5.000
  74.840	        29	    1200	     5.385
  74.920	        15	    1200	     3.873
  75.000	        25	    1200	     5.000
  75.080	        20	    1200	     4.472
  75.160	        22	    1200	     4.690
  75.240	        21	    1200	     4.583
  75.320	        18	    1200	     4.243
  75.400	        13	    1200	     3.606
  75.480	        27	    1200	     5.196
  75.560	        19	    1200	     4.359
  75.640	        11	    1200	     3.317
  75.720	        18	    1200	     4.243
  75.800	        18	    1200	     4.243
  75.880	        20	    1200	     4.472
  75.960	        26	    1200	     5.099
  76.040	        16	    1200	     4.000
  76.120	        25	    1200	     5.000
  76.200	        11	    1200	     3.317
  76.280	        23	    1200	     4.796
  76.360	        30	    1200	     5.477
  76.440	        22	    1200	     4.690
  76.520	        51	    1200	     7.141
  76.600	        54	    1200	     7.348
  76.680	        55	    1200	     7.416
  76.760	        92	    1200	     9.592
  76.840	       142	    1200	    11.916
  76.920	       149	    1200	    12.207
  77.000	       193	    1200	    13.892
  77.080	       206	    1200	    14.353
  77.160	       209	    1200	    14.457
  77.240	       177	    1200	    13.304
  77.320	       137	    1200	    11.705
  77.400	       123	    1200	    11.091
  77.480	       111	    1200	    10.536
  77.560	        68	    1200	     8.246
  77.640	        55	    1200	     7.416
  77.720	        39	    1200	     6.245
  77.800	        39	    1200	     6.245
  77.880	        33	    1200	     5.745
  77.960	        32	    1200	     5.657
  78.040	        22	    1200	     4.690
  78.120	        26	    1200	     5.099
  78.200	        22	    1200	     4.690
  78.280	        19	    1200	     4.359
  78.360	        21	    1200	     4.583
  78.440	        23	    1200	     4.796
  78.520	        15	    1200	     3.873
  78.600	        27	    1200	     5.196
  78.680	        13	    1200	     3.606
  78.760	        26	    1200	     5.099
  78.840	        14	    1200	     3.742
  78.920	        25	    1200	     5.000
  79.000	        22	    1200	     4.690
  79.080	        17	    1200	     4.123
  79.160	        24	    1200	     4.899
  79.240	         9	    1200	     3.000
  79.320	        13	    1200	     3.606
  79.400	        32	    1200	     5.657
  79.480	        24	    1200	     4.899
  79.560	        28	    1200	     5.292
  79.640	        15	    1200	     3.873
  79.720	        17	    1200	     4.123
  79.800	        18	    1200	     4.243
  79.880	        24	    1200	     4.899
  79.960	        19	    1200	     4.359
  80.040	        18	    1200	     4.243
  80.120	        19	    1200	     4.359
  80.200	        13	    1200	     3.606
  80.280	        21	    1200	     4.583
  80.360	        20	    1200	     4.472
  80.440	        23	    1200	     4.796
  80.520	        12	    1200	     3.464
  80.600	        18	    1200	     4.243
  80.680	        18	    1200	     4.243
  80.760	        23	    1200	     4.796
  80.840	        22	    1200	     4.690
  80.920	        15	    1200	     3.873
  81.000	        24	    1200	     4.899
  81.080	        15	    1200	     3.873
  81.160	        16	    1200	     4.000
  81.240	        21	    1200	     4.583
  81.320	        24	    1200	     4.899
  81.400	        28	    1200	     5.292
  81.480	        34	    1200	     5.831
  81.560	        53	    1200	     7.280
  81.640	        54	    1200	     7.348
  81.720	        45	    1200	     6.708
  81.800	        56	    1200	     7.483
  81.880	        54	    1200	     7.348
  81.960	        34	    1200	     5.831
  82.040	        45	    1200	     6.708
  82.120	        48	    1200	     6.928
  82.200	        62	    1200	     7.874
  82.280	        60	    1200	     7.746
  82.360	        51	    1200	     7.141
  82.440	        51	    1200	     7.141
  82.520	        59	    1200	     7.681
  82.600	        43	    1200	     6.557
  82.680	        47	    1200	     6.856
  82.760	        42	    1200	     6.481
  82.840	        62	    1200	     7.874
  82.920	        48	    1200	     6.928
  83.000	        53	    1200	     7.280
  83.080	        47	    1200	     6.856
  83.160	        35	    1200	     5.916
  83.240	        45	    1200	     6.708
  83.320	        25	    1200	     5.000
  83.400	        31	    1200	     5.568
  83.480	        36	    1200	     6.000
  83.560	        25	    1200	     5.000
  83.640	        27	    1200	     5.196
  83.720	        16	    1200	     4.000
  83.800	        21	    1200	     4.583
  83.880	        21	    1200	     4.583
  83.960	        17	    1200	     4.123
  84.040	        24	    1200	     4.899
  84.120	        21	    1200	     4.583
  84.200	        13	    1200	     3.606
  84.280	        21	    1200	     4.583
  84.360	        24	    1200	     4.899
  84.440	        16	    1200	     4.000
  84.520	        31	    1200	     5.568
  84.600	        24	    1200	     4.899
  84.680	        52	    1200	     7.211
  84.760	        43	    1200	     6.557
  84.840	        50	    1200	     7.071
  84.920	        53	    1200	     7.280
  85.000	        46	    1200	     6.782
  85.080	        53	    1200	     7.280
  85.160	        40	    1200	     6.325
  85.240	        38	    1200	     6.164
  85.320	        29	    1200	     5.385
  85.400	        30	    1200	     5.477
  85.480	        27	    1200	     5.196
  85.560	        32	    1200	     5.657
  85.640	        37	    1200	     6.083
  85.720	        38	    1200	     6.164
  85.800	        25	    1200	     5.000
  85.880	        48	    1200	     6.928
  85.960	        50	    1200	     7.071
  86.040	        67	    1200	     8.185
  86.120	        58	    1200	     7.616
  86.200	        60	    1200	     7.746
  86.280	        53	    1200	     7.280
  86.360	        56	    1200	     7.483
  86.440	        36	    1200	     6.000
  86.520	        39	    1200	     6.245
  86.600	        19	    1200	     4.359
  86.680	        26	    1200	     5.099
  86.760	        21	    1200	     4.583
  86.840	        28	    1200	     5.292
  86.920	        27	    1200	     5.196
  87.000	        17	    1200	     4.123
  87.080	        14	    1200	     3.742
  87.160	        12	    1200	     3.464
  87.240	        16	    1200	     4.000
  87.320	        23	    1200	     4.796
  87.400	        19	    1200	     4.359
  87.480	        14	    1200	     3.742
  87.560	        18	    1200	     4.243
  87.640	        12	    1200	     3.464
  87.720	        20	    1200	     4.472
  87.800	        18	    1200	     4.243
  87.880	        24	    1200	     4.899
  87.960	        19	    1200	     4.359
  88.040	        35	    1200	     5.916
  88.120	        12	    1200	     3.464
  88.200	        21	    1200	     4.583
  88.280	        10	    1200	     3.162
  88.360	        18	    1200	     4.243
  88.440	        21	    1200	     4.583
  88.520	        12	    1200	     3.464
  88.600	        23	    1200	     4.796
  88.680	        25	    1200	     5.000
  88.760	        13	    1200	     3.606
  88.840	        19	    1200	     4.359
  88.920	        19	    1200	     4.359
  89.000	        20	    1200	     4.472
  89.080	        15	    1200	     3.873
  89.160	         8	    1200	     2.828
  89.240	        15	    1200	     3.873
  89.320	        12	    1200	     3.464
  89.400	        14	    1200	     3.742
  89.480	        19	    1200	     4.359
  89.560	        20	    1200	     4.472
  89.640	        21	    1200	     4.583
  89.720	        12	    1200	     3.464
  89.800	        16	    1200	     4.000
  89.880	        20	    1200	     4.472
  89.960	        19	    1200	     4.359
  90.000	        21	    1200	     4.583