File: Ex Situ XRD/STF6 850C 91H2 4Hr.txt
         ID:

    Comment:

Scan Type: Normal
Start Angle: 15 deg.
Stop Angle: 90 deg.
Num Points: 3751
Step Size: 0.02 deg.
Datafile Res: 1600
Scan Rate: 1.000000
Scan Mode: Continuous
Wavelength: 1.540562

Diffractometer Optics:
		Detector:
			 Type: Fixed Slits
			 X2 Configuration: No
		Tube:
			 Type: Fixed Slits
			 X2 Configuration: No

Axis[0]
	 Selected   : no
	 Iterative  : no
	 Start Angle: 0.000000
	 Stop Angle : 0.000000
	 Step Size  : 0.000000
	 Oscillating: no

Axis[1]
	 Selected   : no
	 Iterative  : no
	 Start Angle: 0.000000
	 Stop Angle : 0.000000
	 Step Size  : 0.000000
	 Oscillating: no

Axis[2]
	 Selected   : no
	 Iterative  : no
	 Start Angle: 0.000000
	 Stop Angle : 0.000000
	 Step Size  : 0.000000
	 Oscillating: no

Axis[3]
	 Selected   : no
	 Iterative  : no
	 Start Angle: 0.000000
	 Stop Angle : 0.000000
	 Step Size  : 0.000000
	 Oscillating: no

Axis[4]
	 Selected   : no
	 Iterative  : no
	 Start Angle: 0.000000
	 Stop Angle : 0.000000
	 Step Size  : 0.000000
	 Oscillating: no

Axis[5]
	 Selected   : no
	 Iterative  : no
	 Start Angle: 0.000000
	 Stop Angle : 0.000000
	 Step Size  : 0.000000
	 Oscillating: no

Axis[6]
	 Selected   : no
	 Iterative  : no
	 Start Angle: 0.000000
	 Stop Angle : 0.000000
	 Step Size  : 0.000000
	 Oscillating: no

Axis[7]
	 Selected   : no
	 Iterative  : no
	 Start Angle: 0.000000
	 Stop Angle : 0.000000
	 Step Size  : 0.000000
	 Oscillating: no

Axis[8]
	 Selected   : no
	 Iterative  : no
	 Start Angle: 0.000000
	 Stop Angle : 0.000000
	 Step Size  : 0.000000
	 Oscillating: no

Axis[9]
	 Selected   : no
	 Iterative  : no
	 Start Angle: 0.000000
	 Stop Angle : 0.000000
	 Step Size  : 0.000000
	 Oscillating: no

	   Deg.    Counts 	   Time 	    ESD

Range 0
  15.000	       136	    1200	    11.662
  15.080	       114	    1200	    10.677
  15.160	       125	    1200	    11.180
  15.240	       111	    1200	    10.536
  15.320	       107	    1200	    10.344
  15.400	        89	    1200	     9.434
  15.480	       110	    1200	    10.488
  15.560	       133	    1200	    11.533
  15.640	       114	    1200	    10.677
  15.720	       120	    1200	    10.954
  15.800	       113	    1200	    10.630
  15.880	       133	    1200	    11.533
  15.960	       105	    1200	    10.247
  16.040	       111	    1200	    10.536
  16.120	       109	    1200	    10.440
  16.200	       108	    1200	    10.392
  16.280	       127	    1200	    11.269
  16.360	       123	    1200	    11.091
  16.440	       112	    1200	    10.583
  16.520	       116	    1200	    10.770
  16.600	       126	    1200	    11.225
  16.680	       127	    1200	    11.269
  16.760	       115	    1200	    10.724
  16.840	       114	    1200	    10.677
  16.920	       106	    1200	    10.296
  17.000	       103	    1200	    10.149
  17.080	       120	    1200	    10.954
  17.160	       101	    1200	    10.050
  17.240	        97	    1200	     9.849
  17.320	       111	    1200	    10.536
  17.400	       114	    1200	    10.677
  17.480	       130	    1200	    11.402
  17.560	       110	    1200	    10.488
  17.640	       135	    1200	    11.619
  17.720	       116	    1200	    10.770
  17.800	       121	    1200	    11.000
  17.880	       119	    1200	    10.909
  17.960	       117	    1200	    10.817
  18.040	       128	    1200	    11.314
  18.120	       102	    1200	    10.100
  18.200	       136	    1200	    11.662
  18.280	       106	    1200	    10.296
  18.360	       105	    1200	    10.247
  18.440	       113	    1200	    10.630
  18.520	       125	    1200	    11.180
  18.600	       128	    1200	    11.314
  18.680	       124	    1200	    11.136
  18.760	       100	    1200	    10.000
  18.840	       110	    1200	    10.488
  18.920	       110	    1200	    10.488
  19.000	       118	    1200	    10.863
  19.080	       123	    1200	    11.091
  19.160	       117	    1200	    10.817
  19.240	       110	    1200	    10.488
  19.320	       118	    1200	    10.863
  19.400	       121	    1200	    11.000
  19.480	       113	    1200	    10.630
  19.560	       115	    1200	    10.724
  19.640	       115	    1200	    10.724
  19.720	       111	    1200	    10.536
  19.800	       117	    1200	    10.817
  19.880	       104	    1200	    10.198
  19.960	       117	    1200	    10.817
  20.040	       121	    1200	    11.000
  20.120	       115	    1200	    10.724
  20.200	       118	    1200	    10.863
  20.280	       123	    1200	    11.091
  20.360	        84	    1200	     9.165
  20.440	       106	    1200	    10.296
  20.520	       106	    1200	    10.296
  20.600	       116	    1200	    10.770
  20.680	       120	    1200	    10.954
  20.760	       123	    1200	    11.091
  20.840	       122	    1200	    11.045
  20.920	       119	    1200	    10.909
  21.000	       110	    1200	    10.488
  21.080	       124	    1200	    11.136
  21.160	        88	    1200	     9.381
  21.240	       109	    1200	    10.440
  21.320	       127	    1200	    11.269
  21.400	        90	    1200	     9.487
  21.480	       102	    1200	    10.100
  21.560	        97	    1200	     9.849
  21.640	       105	    1200	    10.247
  21.720	        85	    1200	     9.220
  21.800	        92	    1200	     9.592
  21.880	       121	    1200	    11.000
  21.960	        93	    1200	     9.644
  22.040	       112	    1200	    10.583
  22.120	       110	    1200	    10.488
  22.200	       103	    1200	    10.149
  22.280	        99	    1200	     9.950
  22.360	       116	    1200	    10.770
  22.440	       117	    1200	    10.817
  22.520	       148	    1200	    12.166
  22.600	       130	    1200	    11.402
  22.680	       117	    1200	    10.817
  22.760	        94	    1200	     9.695
  22.840	       102	    1200	    10.100
  22.920	        86	    1200	     9.274
  23.000	       107	    1200	    10.344
  23.080	       119	    1200	    10.909
  23.160	       110	    1200	    10.488
  23.240	        96	    1200	     9.798
  23.320	        87	    1200	     9.327
  23.400	       101	    1200	    10.050
  23.480	        99	    1200	     9.950
  23.560	       101	    1200	    10.050
  23.640	       106	    1200	    10.296
  23.720	       100	    1200	    10.000
  23.800	       109	    1200	    10.440
  23.880	        81	    1200	     9.000
  23.960	        94	    1200	     9.695
  24.040	       111	    1200	    10.536
  24.120	        84	    1200	     9.165
  24.200	        78	    1200	     8.832
  24.280	        91	    1200	     9.539
  24.360	        93	    1200	     9.644
  24.440	        93	    1200	     9.644
  24.520	        84	    1200	     9.165
  24.600	       100	    1200	    10.000
  24.680	        74	    1200	     8.602
  24.760	        86	    1200	     9.274
  24.840	        71	    1200	     8.426
  24.920	        82	    1200	     9.055
  25.000	        90	    1200	     9.487
  25.080	        84	    1200	     9.165
  25.160	        78	    1200	     8.832
  25.240	        84	    1200	     9.165
  25.320	        85	    1200	     9.220
  25.400	        73	    1200	     8.544
  25.480	        80	    1200	     8.944
  25.560	        85	    1200	     9.220
  25.640	        60	    1200	     7.746
  25.720	        74	    1200	     8.602
  25.800	        67	    1200	     8.185
  25.880	        74	    1200	     8.602
  25.960	        75	    1200	     8.660
  26.040	        76	    1200	     8.718
  26.120	        62	    1200	     7.874
  26.200	        60	    1200	     7.746
  26.280	        75	    1200	     8.660
  26.360	        74	    1200	     8.602
  26.440	        58	    1200	     7.616
  26.520	        62	    1200	     7.874
  26.600	        64	    1200	     8.000
  26.680	        61	    1200	     7.810
  26.760	        69	    1200	     8.307
  26.840	        64	    1200	     8.000
  26.920	        82	    1200	     9.055
  27.000	        63	    1200	     7.937
  27.080	        62	    1200	     7.874
  27.160	        49	    1200	     7.000
  27.240	        52	    1200	     7.211
  27.320	        72	    1200	     8.485
  27.400	        76	    1200	     8.718
  27.480	        57	    1200	     7.550
  27.560	        56	    1200	     7.483
  27.640	        51	    1200	     7.141
  27.720	        66	    1200	     8.124
  27.800	        57	    1200	     7.550
  27.880	        59	    1200	     7.681
  27.960	        56	    1200	     7.483
  28.040	        54	    1200	     7.348
  28.120	        54	    1200	     7.348
  28.200	        49	    1200	     7.000
  28.280	        42	    1200	     6.481
  28.360	        43	    1200	     6.557
  28.440	        61	    1200	     7.810
  28.520	        45	    1200	     6.708
  28.600	        48	    1200	     6.928
  28.680	        36	    1200	     6.000
  28.760	        37	    1200	     6.083
  28.840	        53	    1200	     7.280
  28.920	        53	    1200	     7.280
  29.000	        57	    1200	     7.550
  29.080	        48	    1200	     6.928
  29.160	        31	    1200	     5.568
  29.240	        42	    1200	     6.481
  29.320	        33	    1200	     5.745
  29.400	        31	    1200	     5.568
  29.480	        44	    1200	     6.633
  29.560	        29	    1200	     5.385
  29.640	        31	    1200	     5.568
  29.720	        44	    1200	     6.633
  29.800	        45	    1200	     6.708
  29.880	        48	    1200	     6.928
  29.960	        41	    1200	     6.403
  30.040	        44	    1200	     6.633
  30.120	        45	    1200	     6.708
  30.200	        38	    1200	     6.164
  30.280	        34	    1200	     5.831
  30.360	        39	    1200	     6.245
  30.440	        38	    1200	     6.164
  30.520	        49	    1200	     7.000
  30.600	        47	    1200	     6.856
  30.680	        31	    1200	     5.568
  30.760	        42	    1200	     6.481
  30.840	        41	    1200	     6.403
  30.920	        44	    1200	     6.633
  31.000	        44	    1200	     6.633
  31.080	        63	    1200	     7.937
  31.160	        33	    1200	     5.745
  31.240	        53	    1200	     7.280
  31.320	        56	    1200	     7.483
  31.400	        73	    1200	     8.544
  31.480	        74	    1200	     8.602
  31.560	        89	    1200	     9.434
  31.640	        96	    1200	     9.798
  31.720	       108	    1200	    10.392
  31.800	       126	    1200	    11.225
  31.880	       221	    1200	    14.866
  31.960	       439	    1200	    20.952
  32.040	      1003	    1200	    31.670
  32.120	      2012	    1200	    44.855
  32.200	      2405	    1200	    49.041
  32.280	      1605	    1200	    40.062
  32.360	       742	    1200	    27.240
  32.440	       337	    1200	    18.358
  32.520	       147	    1200	    12.124
  32.600	        89	    1200	     9.434
  32.680	        83	    1200	     9.110
  32.760	        77	    1200	     8.775
  32.840	        70	    1200	     8.367
  32.920	        55	    1200	     7.416
  33.000	        57	    1200	     7.550
  33.080	        31	    1200	     5.568
  33.160	        40	    1200	     6.325
  33.240	        46	    1200	     6.782
  33.320	        39	    1200	     6.245
  33.400	        38	    1200	     6.164
  33.480	        41	    1200	     6.403
  33.560	        35	    1200	     5.916
  33.640	        27	    1200	     5.196
  33.720	        38	    1200	     6.164
  33.800	        33	    1200	     5.745
  33.880	        33	    1200	     5.745
  33.960	        23	    1200	     4.796
  34.040	        35	    1200	     5.916
  34.120	        27	    1200	     5.196
  34.200	        28	    1200	     5.292
  34.280	        35	    1200	     5.916
  34.360	        38	    1200	     6.164
  34.440	        29	    1200	     5.385
  34.520	        33	    1200	     5.745
  34.600	        34	    1200	     5.831
  34.680	        30	    1200	     5.477
  34.760	        19	    1200	     4.359
  34.840	        29	    1200	     5.385
  34.920	        23	    1200	     4.796
  35.000	        32	    1200	     5.657
  35.080	        17	    1200	     4.123
  35.160	        15	    1200	     3.873
  35.240	        33	    1200	     5.745
  35.320	        34	    1200	     5.831
  35.400	        32	    1200	     5.657
  35.480	        34	    1200	     5.831
  35.560	        19	    1200	     4.359
  35.640	        23	    1200	     4.796
  35.720	        15	    1200	     3.873
  35.800	        22	    1200	     4.690
  35.880	        20	    1200	     4.472
  35.960	        18	    1200	     4.243
  36.040	        24	    1200	     4.899
  36.120	        19	    1200	     4.359
  36.200	        23	    1200	     4.796
  36.280	        24	    1200	     4.899
  36.360	        21	    1200	     4.583
  36.440	        32	    1200	     5.657
  36.520	        21	    1200	     4.583
  36.600	        22	    1200	     4.690
  36.680	        18	    1200	     4.243
  36.760	        29	    1200	     5.385
  36.840	        12	    1200	     3.464
  36.920	        23	    1200	     4.796
  37.000	        25	    1200	     5.000
  37.080	        26	    1200	     5.099
  37.160	        22	    1200	     4.690
  37.240	        28	    1200	     5.292
  37.320	        23	    1200	     4.796
  37.400	        20	    1200	     4.472
  37.480	        20	    1200	     4.472
  37.560	        15	    1200	     3.873
  37.640	        20	    1200	     4.472
  37.720	        21	    1200	     4.583
  37.800	        12	    1200	     3.464
  37.880	        33	    1200	     5.745
  37.960	        17	    1200	     4.123
  38.040	        22	    1200	     4.690
  38.120	        22	    1200	     4.690
  38.200	        20	    1200	     4.472
  38.280	        20	    1200	     4.472
  38.360	        19	    1200	     4.359
  38.440	        18	    1200	     4.243
  38.520	        21	    1200	     4.583
  38.600	        21	    1200	     4.583
  38.680	        33	    1200	     5.745
  38.760	        13	    1200	     3.606
  38.840	        21	    1200	     4.583
  38.920	        23	    1200	     4.796
  39.000	        34	    1200	     5.831
  39.080	        25	    1200	     5.000
  39.160	        33	    1200	     5.745
  39.240	        44	    1200	     6.633
  39.320	        35	    1200	     5.916
  39.400	        50	    1200	     7.071
  39.480	        62	    1200	     7.874
  39.560	       111	    1200	    10.536
  39.640	       215	    1200	    14.663
  39.720	       379	    1200	    19.468
  39.800	       361	    1200	    19.000
  39.880	       230	    1200	    15.166
  39.960	       134	    1200	    11.576
  40.040	        69	    1200	     8.307
  40.120	        47	    1200	     6.856
  40.200	        24	    1200	     4.899
  40.280	        21	    1200	     4.583
  40.360	        27	    1200	     5.196
  40.440	        23	    1200	     4.796
  40.520	        22	    1200	     4.690
  40.600	        18	    1200	     4.243
  40.680	        26	    1200	     5.099
  40.760	        17	    1200	     4.123
  40.840	        24	    1200	     4.899
  40.920	        20	    1200	     4.472
  41.000	        18	    1200	     4.243
  41.080	        34	    1200	     5.831
  41.160	        42	    1200	     6.481
  41.240	        43	    1200	     6.557
  41.320	        31	    1200	     5.568
  41.400	        37	    1200	     6.083
  41.480	        30	    1200	     5.477
  41.560	        21	    1200	     4.583
  41.640	        16	    1200	     4.000
  41.720	        16	    1200	     4.000
  41.800	        15	    1200	     3.873
  41.880	        18	    1200	     4.243
  41.960	        18	    1200	     4.243
  42.040	        15	    1200	     3.873
  42.120	        17	    1200	     4.123
  42.200	        16	    1200	     4.000
  42.280	        17	    1200	     4.123
  42.360	        17	    1200	     4.123
  42.440	        21	    1200	     4.583
  42.520	        17	    1200	     4.123
  42.600	        15	    1200	     3.873
  42.680	        20	    1200	     4.472
  42.760	        11	    1200	     3.317
  42.840	        22	    1200	     4.690
  42.920	        11	    1200	     3.317
  43.000	        19	    1200	     4.359
  43.080	        18	    1200	     4.243
  43.160	        13	    1200	     3.606
  43.240	        22	    1200	     4.690
  43.320	        14	    1200	     3.742
  43.400	        15	    1200	     3.873
  43.480	        17	    1200	     4.123
  43.560	        17	    1200	     4.123
  43.640	        17	    1200	     4.123
  43.720	        12	    1200	     3.464
  43.800	        15	    1200	     3.873
  43.880	        15	    1200	     3.873
  43.960	        15	    1200	     3.873
  44.040	        19	    1200	     4.359
  44.120	        23	    1200	     4.796
  44.200	        12	    1200	     3.464
  44.280	        15	    1200	     3.873
  44.360	        22	    1200	     4.690
  44.440	        23	    1200	     4.796
  44.520	        24	    1200	     4.899
  44.600	        23	    1200	     4.796
  44.680	        27	    1200	     5.196
  44.760	        22	    1200	     4.690
  44.840	        20	    1200	     4.472
  44.920	        24	    1200	     4.899
  45.000	        17	    1200	     4.123
  45.080	        20	    1200	     4.472
  45.160	        24	    1200	     4.899
  45.240	        20	    1200	     4.472
  45.320	        22	    1200	     4.690
  45.400	        26	    1200	     5.099
  45.480	        26	    1200	     5.099
  45.560	        36	    1200	     6.000
  45.640	        42	    1200	     6.481
  45.720	        56	    1200	     7.483
  45.800	        85	    1200	     9.220
  45.880	        97	    1200	     9.849
  45.960	       162	    1200	    12.728
  46.040	       246	    1200	    15.684
  46.120	       468	    1200	    21.633
  46.200	       748	    1200	    27.350
  46.280	       832	    1200	    28.844
  46.360	       713	    1200	    26.702
  46.440	       445	    1200	    21.095
  46.520	       212	    1200	    14.560
  46.600	       118	    1200	    10.863
  46.680	        75	    1200	     8.660
  46.760	        43	    1200	     6.557
  46.840	        33	    1200	     5.745
  46.920	        28	    1200	     5.292
  47.000	        31	    1200	     5.568
  47.080	        34	    1200	     5.831
  47.160	        22	    1200	     4.690
  47.240	        34	    1200	     5.831
  47.320	        25	    1200	     5.000
  47.400	        30	    1200	     5.477
  47.480	        43	    1200	     6.557
  47.560	        21	    1200	     4.583
  47.640	        21	    1200	     4.583
  47.720	        20	    1200	     4.472
  47.800	        16	    1200	     4.000
  47.880	        15	    1200	     3.873
  47.960	        21	    1200	     4.583
  48.040	        14	    1200	     3.742
  48.120	        15	    1200	     3.873
  48.200	        16	    1200	     4.000
  48.280	        23	    1200	     4.796
  48.360	        19	    1200	     4.359
  48.440	        27	    1200	     5.196
  48.520	        16	    1200	     4.000
  48.600	        19	    1200	     4.359
  48.680	        15	    1200	     3.873
  48.760	        14	    1200	     3.742
  48.840	        13	    1200	     3.606
  48.920	        16	    1200	     4.000
  49.000	        11	    1200	     3.317
  49.080	        11	    1200	     3.317
  49.160	        21	    1200	     4.583
  49.240	        11	    1200	     3.317
  49.320	        11	    1200	     3.317
  49.400	        17	    1200	     4.123
  49.480	         9	    1200	     3.000
  49.560	        19	    1200	     4.359
  49.640	        11	    1200	     3.317
  49.720	        18	    1200	     4.243
  49.800	        12	    1200	     3.464
  49.880	        11	    1200	     3.317
  49.960	        12	    1200	     3.464
  50.040	        11	    1200	     3.317
  50.120	        13	    1200	     3.606
  50.200	        11	    1200	     3.317
  50.280	        12	    1200	     3.464
  50.360	        13	    1200	     3.606
  50.440	         7	    1200	     2.646
  50.520	        15	    1200	     3.873
  50.600	        11	    1200	     3.317
  50.680	        17	    1200	     4.123
  50.760	        14	    1200	     3.742
  50.840	        12	    1200	     3.464
  50.920	        12	    1200	     3.464
  51.000	        11	    1200	     3.317
  51.080	        17	    1200	     4.123
  51.160	         9	    1200	     3.000
  51.240	        10	    1200	     3.162
  51.320	        11	    1200	     3.317
  51.400	        10	    1200	     3.162
  51.480	        19	    1200	     4.359
  51.560	         8	    1200	     2.828
  51.640	        20	    1200	     4.472
  51.720	        26	    1200	     5.099
  51.800	        26	    1200	     5.099
  51.880	        22	    1200	     4.690
  51.960	        29	    1200	     5.385
  52.040	        46	    1200	     6.782
  52.120	        49	    1200	     7.000
  52.200	        62	    1200	     7.874
  52.280	        40	    1200	     6.325
  52.360	        15	    1200	     3.873
  52.440	        21	    1200	     4.583
  52.520	        17	    1200	     4.123
  52.600	        18	    1200	     4.243
  52.680	        15	    1200	     3.873
  52.760	        12	    1200	     3.464
  52.840	         8	    1200	     2.828
  52.920	        17	    1200	     4.123
  53.000	        14	    1200	     3.742
  53.080	        12	    1200	     3.464
  53.160	        21	    1200	     4.583
  53.240	        13	    1200	     3.606
  53.320	        12	    1200	     3.464
  53.400	        19	    1200	     4.359
  53.480	        23	    1200	     4.796
  53.560	        20	    1200	     4.472
  53.640	        12	    1200	     3.464
  53.720	         9	    1200	     3.000
  53.800	        10	    1200	     3.162
  53.880	        16	    1200	     4.000
  53.960	        11	    1200	     3.317
  54.040	        11	    1200	     3.317
  54.120	        12	    1200	     3.464
  54.200	        15	    1200	     3.873
  54.280	        17	    1200	     4.123
  54.360	        15	    1200	     3.873
  54.440	        12	    1200	     3.464
  54.520	        16	    1200	     4.000
  54.600	        15	    1200	     3.873
  54.680	        13	    1200	     3.606
  54.760	        22	    1200	     4.690
  54.840	        14	    1200	     3.742
  54.920	        15	    1200	     3.873
  55.000	        15	    1200	     3.873
  55.080	        13	    1200	     3.606
  55.160	         7	    1200	     2.646
  55.240	        17	    1200	     4.123
  55.320	        12	    1200	     3.464
  55.400	        19	    1200	     4.359
  55.480	        15	    1200	     3.873
  55.560	        16	    1200	     4.000
  55.640	        17	    1200	     4.123
  55.720	        22	    1200	     4.690
  55.800	        19	    1200	     4.359
  55.880	        20	    1200	     4.472
  55.960	        19	    1200	     4.359
  56.040	        10	    1200	     3.162
  56.120	        20	    1200	     4.472
  56.200	        17	    1200	     4.123
  56.280	        13	    1200	     3.606
  56.360	        24	    1200	     4.899
  56.440	        14	    1200	     3.742
  56.520	        29	    1200	     5.385
  56.600	        41	    1200	     6.403
  56.680	        31	    1200	     5.568
  56.760	        48	    1200	     6.928
  56.840	        35	    1200	     5.916
  56.920	        44	    1200	     6.633
  57.000	        58	    1200	     7.616
  57.080	        85	    1200	     9.220
  57.160	        91	    1200	     9.539
  57.240	       143	    1200	    11.958
  57.320	       203	    1200	    14.248
  57.400	       439	    1200	    20.952
  57.480	       714	    1200	    26.721
  57.560	       860	    1200	    29.326
  57.640	       758	    1200	    27.532
  57.720	       609	    1200	    24.678
  57.800	       390	    1200	    19.748
  57.880	       197	    1200	    14.036
  57.960	       126	    1200	    11.225
  58.040	        66	    1200	     8.124
  58.120	        55	    1200	     7.416
  58.200	        38	    1200	     6.164
  58.280	        36	    1200	     6.000
  58.360	        30	    1200	     5.477
  58.440	        36	    1200	     6.000
  58.520	        32	    1200	     5.657
  58.600	        17	    1200	     4.123
  58.680	        22	    1200	     4.690
  58.760	        30	    1200	     5.477
  58.840	        17	    1200	     4.123
  58.920	        19	    1200	     4.359
  59.000	        27	    1200	     5.196
  59.080	        23	    1200	     4.796
  59.160	        26	    1200	     5.099
  59.240	        20	    1200	     4.472
  59.320	        13	    1200	     3.606
  59.400	        21	    1200	     4.583
  59.480	        12	    1200	     3.464
  59.560	        19	    1200	     4.359
  59.640	        21	    1200	     4.583
  59.720	        14	    1200	     3.742
  59.800	        16	    1200	     4.000
  59.880	        15	    1200	     3.873
  59.960	        16	    1200	     4.000
  60.040	        20	    1200	     4.472
  60.120	         9	    1200	     3.000
  60.200	        12	    1200	     3.464
  60.280	        15	    1200	     3.873
  60.360	        15	    1200	     3.873
  60.440	        19	    1200	     4.359
  60.520	        20	    1200	     4.472
  60.600	        18	    1200	     4.243
  60.680	        17	    1200	     4.123
  60.760	        13	    1200	     3.606
  60.840	        17	    1200	     4.123
  60.920	        17	    1200	     4.123
  61.000	        20	    1200	     4.472
  61.080	        14	    1200	     3.742
  61.160	        19	    1200	     4.359
  61.240	        22	    1200	     4.690
  61.320	        15	    1200	     3.873
  61.400	        20	    1200	     4.472
  61.480	        12	    1200	     3.464
  61.560	        13	    1200	     3.606
  61.640	        10	    1200	     3.162
  61.720	        10	    1200	     3.162
  61.800	        19	    1200	     4.359
  61.880	        19	    1200	     4.359
  61.960	        11	    1200	     3.317
  62.040	        17	    1200	     4.123
  62.120	        20	    1200	     4.472
  62.200	        20	    1200	     4.472
  62.280	        14	    1200	     3.742
  62.360	        23	    1200	     4.796
  62.440	        17	    1200	     4.123
  62.520	        26	    1200	     5.099
  62.600	        19	    1200	     4.359
  62.680	        17	    1200	     4.123
  62.760	         9	    1200	     3.000
  62.840	        19	    1200	     4.359
  62.920	        18	    1200	     4.243
  63.000	        26	    1200	     5.099
  63.080	        27	    1200	     5.196
  63.160	        23	    1200	     4.796
  63.240	        14	    1200	     3.742
  63.320	        19	    1200	     4.359
  63.400	        23	    1200	     4.796
  63.480	        13	    1200	     3.606
  63.560	        18	    1200	     4.243
  63.640	        24	    1200	     4.899
  63.720	        17	    1200	     4.123
  63.800	        27	    1200	     5.196
  63.880	        27	    1200	     5.196
  63.960	        25	    1200	     5.000
  64.040	        19	    1200	     4.359
  64.120	        18	    1200	     4.243
  64.200	        23	    1200	     4.796
  64.280	        22	    1200	     4.690
  64.360	        21	    1200	     4.583
  64.440	        16	    1200	     4.000
  64.520	        15	    1200	     3.873
  64.600	        16	    1200	     4.000
  64.680	        18	    1200	     4.243
  64.760	        17	    1200	     4.123
  64.840	         8	    1200	     2.828
  64.920	        18	    1200	     4.243
  65.000	        12	    1200	     3.464
  65.080	        18	    1200	     4.243
  65.160	        17	    1200	     4.123
  65.240	        15	    1200	     3.873
  65.320	        19	    1200	     4.359
  65.400	        17	    1200	     4.123
  65.480	        10	    1200	     3.162
  65.560	        25	    1200	     5.000
  65.640	        23	    1200	     4.796
  65.720	        12	    1200	     3.464
  65.800	         9	    1200	     3.000
  65.880	        21	    1200	     4.583
  65.960	        24	    1200	     4.899
  66.040	        19	    1200	     4.359
  66.120	        25	    1200	     5.000
  66.200	        22	    1200	     4.690
  66.280	        17	    1200	     4.123
  66.360	        25	    1200	     5.000
  66.440	        22	    1200	     4.690
  66.520	        19	    1200	     4.359
  66.600	        16	    1200	     4.000
  66.680	        27	    1200	     5.196
  66.760	        22	    1200	     4.690
  66.840	        27	    1200	     5.196
  66.920	        26	    1200	     5.099
  67.000	        32	    1200	     5.657
  67.080	        51	    1200	     7.141
  67.160	        66	    1200	     8.124
  67.240	        71	    1200	     8.426
  67.320	       120	    1200	    10.954
  67.400	       201	    1200	    14.177
  67.480	       279	    1200	    16.703
  67.560	       383	    1200	    19.570
  67.640	       396	    1200	    19.900
  67.720	       347	    1200	    18.628
  67.800	       281	    1200	    16.763
  67.880	       162	    1200	    12.728
  67.960	       138	    1200	    11.747
  68.040	        90	    1200	     9.487
  68.120	        55	    1200	     7.416
  68.200	        44	    1200	     6.633
  68.280	        31	    1200	     5.568
  68.360	        39	    1200	     6.245
  68.440	        32	    1200	     5.657
  68.520	        29	    1200	     5.385
  68.600	        26	    1200	     5.099
  68.680	        30	    1200	     5.477
  68.760	        23	    1200	     4.796
  68.840	        16	    1200	     4.000
  68.920	        20	    1200	     4.472
  69.000	        19	    1200	     4.359
  69.080	        23	    1200	     4.796
  69.160	        14	    1200	     3.742
  69.240	        16	    1200	     4.000
  69.320	        24	    1200	     4.899
  69.400	        15	    1200	     3.873
  69.480	        18	    1200	     4.243
  69.560	        23	    1200	     4.796
  69.640	        15	    1200	     3.873
  69.720	        22	    1200	     4.690
  69.800	        16	    1200	     4.000
  69.880	        19	    1200	     4.359
  69.960	        14	    1200	     3.742
  70.040	        11	    1200	     3.317
  70.120	         7	    1200	     2.646
  70.200	        16	    1200	     4.000
  70.280	        15	    1200	     3.873
  70.360	        14	    1200	     3.742
  70.440	        16	    1200	     4.000
  70.520	        15	    1200	     3.873
  70.600	        25	    1200	     5.000
  70.680	        17	    1200	     4.123
  70.760	        16	    1200	     4.000
  70.840	        10	    1200	     3.162
  70.920	        16	    1200	     4.000
  71.000	        18	    1200	     4.243
  71.080	         9	    1200	     3.000
  71.160	        17	    1200	     4.123
  71.240	        10	    1200	     3.162
  71.320	        13	    1200	     3.606
  71.400	         9	    1200	     3.000
  71.480	        18	    1200	     4.243
  71.560	        13	    1200	     3.606
  71.640	        19	    1200	     4.359
  71.720	        10	    1200	     3.162
  71.800	        15	    1200	     3.873
  71.880	        13	    1200	     3.606
  71.960	        20	    1200	     4.472
  72.040	         9	    1200	     3.000
  72.120	        27	    1200	     5.196
  72.200	        30	    1200	     5.477
  72.280	        39	    1200	     6.245
  72.360	        33	    1200	     5.745
  72.440	        35	    1200	     5.916
  72.520	        23	    1200	     4.796
  72.600	        30	    1200	     5.477
  72.680	        23	    1200	     4.796
  72.760	        25	    1200	     5.000
  72.840	        16	    1200	     4.000
  72.920	        13	    1200	     3.606
  73.000	        13	    1200	     3.606
  73.080	        20	    1200	     4.472
  73.160	        13	    1200	     3.606
  73.240	        13	    1200	     3.606
  73.320	        10	    1200	     3.162
  73.400	        16	    1200	     4.000
  73.480	        12	    1200	     3.464
  73.560	        13	    1200	     3.606
  73.640	         9	    1200	     3.000
  73.720	        17	    1200	     4.123
  73.800	        13	    1200	     3.606
  73.880	        14	    1200	     3.742
  73.960	        14	    1200	     3.742
  74.040	        20	    1200	     4.472
  74.120	        10	    1200	     3.162
  74.200	         6	    1200	     2.449
  74.280	        15	    1200	     3.873
  74.360	        17	    1200	     4.123
  74.440	        10	    1200	     3.162
  74.520	        20	    1200	     4.472
  74.600	        13	    1200	     3.606
  74.680	        15	    1200	     3.873
  74.760	         8	    1200	     2.828
  74.840	        13	    1200	     3.606
  74.920	         9	    1200	     3.000
  75.000	        18	    1200	     4.243
  75.080	        10	    1200	     3.162
  75.160	        18	    1200	     4.243
  75.240	        16	    1200	     4.000
  75.320	        13	    1200	     3.606
  75.400	        20	    1200	     4.472
  75.480	        15	    1200	     3.873
  75.560	        22	    1200	     4.690
  75.640	        14	    1200	     3.742
  75.720	        11	    1200	     3.317
  75.800	        24	    1200	     4.899
  75.880	        13	    1200	     3.606
  75.960	        17	    1200	     4.123
  76.040	        25	    1200	     5.000
  76.120	        26	    1200	     5.099
  76.200	        35	    1200	     5.916
  76.280	        33	    1200	     5.745
  76.360	        38	    1200	     6.164
  76.440	        39	    1200	     6.245
  76.520	        41	    1200	     6.403
  76.600	        82	    1200	     9.055
  76.680	        96	    1200	     9.798
  76.760	       154	    1200	    12.410
  76.840	       201	    1200	    14.177
  76.920	       237	    1200	    15.395
  77.000	       238	    1200	    15.427
  77.080	       250	    1200	    15.811
  77.160	       215	    1200	    14.663
  77.240	       156	    1200	    12.490
  77.320	       130	    1200	    11.402
  77.400	        83	    1200	     9.110
  77.480	        49	    1200	     7.000
  77.560	        49	    1200	     7.000
  77.640	        32	    1200	     5.657
  77.720	        21	    1200	     4.583
  77.800	        20	    1200	     4.472
  77.880	        25	    1200	     5.000
  77.960	        24	    1200	     4.899
  78.040	        17	    1200	     4.123
  78.120	        21	    1200	     4.583
  78.200	        20	    1200	     4.472
  78.280	        18	    1200	     4.243
  78.360	        22	    1200	     4.690
  78.440	        21	    1200	     4.583
  78.520	        14	    1200	     3.742
  78.600	        15	    1200	     3.873
  78.680	        16	    1200	     4.000
  78.760	        19	    1200	     4.359
  78.840	        11	    1200	     3.317
  78.920	        16	    1200	     4.000
  79.000	        17	    1200	     4.123
  79.080	        16	    1200	     4.000
  79.160	        18	    1200	     4.243
  79.240	         9	    1200	     3.000
  79.320	        20	    1200	     4.472
  79.400	        16	    1200	     4.000
  79.480	        14	    1200	     3.742
  79.560	        14	    1200	     3.742
  79.640	        13	    1200	     3.606
  79.720	        25	    1200	     5.000
  79.800	        12	    1200	     3.464
  79.880	        17	    1200	     4.123
  79.960	        21	    1200	     4.583
  80.040	        19	    1200	     4.359
  80.120	        19	    1200	     4.359
  80.200	        18	    1200	     4.243
  80.280	        18	    1200	     4.243
  80.360	        15	    1200	     3.873
  80.440	        14	    1200	     3.742
  80.520	        13	    1200	     3.606
  80.600	        24	    1200	     4.899
  80.680	        12	    1200	     3.464
  80.760	        25	    1200	     5.000
  80.840	        18	    1200	     4.243
  80.920	        26	    1200	     5.099
  81.000	        23	    1200	     4.796
  81.080	        33	    1200	     5.745
  81.160	        28	    1200	     5.292
  81.240	        42	    1200	     6.481
  81.320	        60	    1200	     7.746
  81.400	        78	    1200	     8.832
  81.480	        61	    1200	     7.810
  81.560	        73	    1200	     8.544
  81.640	        63	    1200	     7.937
  81.720	        55	    1200	     7.416
  81.800	        48	    1200	     6.928
  81.880	        47	    1200	     6.856
  81.960	        41	    1200	     6.403
  82.040	        36	    1200	     6.000
  82.120	        23	    1200	     4.796
  82.200	        30	    1200	     5.477
  82.280	        17	    1200	     4.123
  82.360	        20	    1200	     4.472
  82.440	        24	    1200	     4.899
  82.520	        20	    1200	     4.472
  82.600	        25	    1200	     5.000
  82.680	        14	    1200	     3.742
  82.760	        15	    1200	     3.873
  82.840	        19	    1200	     4.359
  82.920	        18	    1200	     4.243
  83.000	        27	    1200	     5.196
  83.080	        18	    1200	     4.243
  83.160	        17	    1200	     4.123
  83.240	        17	    1200	     4.123
  83.320	        21	    1200	     4.583
  83.400	        16	    1200	     4.000
  83.480	        25	    1200	     5.000
  83.560	        15	    1200	     3.873
  83.640	        18	    1200	     4.243
  83.720	        14	    1200	     3.742
  83.800	        16	    1200	     4.000
  83.880	        16	    1200	     4.000
  83.960	        20	    1200	     4.472
  84.040	        15	    1200	     3.873
  84.120	        16	    1200	     4.000
  84.200	        23	    1200	     4.796
  84.280	        16	    1200	     4.000
  84.360	        18	    1200	     4.243
  84.440	        12	    1200	     3.464
  84.520	        15	    1200	     3.873
  84.600	        16	    1200	     4.000
  84.680	        22	    1200	     4.690
  84.760	        21	    1200	     4.583
  84.840	        21	    1200	     4.583
  84.920	        17	    1200	     4.123
  85.000	        19	    1200	     4.359
  85.080	        16	    1200	     4.000
  85.160	        19	    1200	     4.359
  85.240	        26	    1200	     5.099
  85.320	        21	    1200	     4.583
  85.400	        17	    1200	     4.123
  85.480	        22	    1200	     4.690
  85.560	        32	    1200	     5.657
  85.640	        30	    1200	     5.477
  85.720	        41	    1200	     6.403
  85.800	        73	    1200	     8.544
  85.880	       107	    1200	    10.344
  85.960	       111	    1200	    10.536
  86.040	       102	    1200	    10.100
  86.120	       100	    1200	    10.000
  86.200	        87	    1200	     9.327
  86.280	        66	    1200	     8.124
  86.360	        49	    1200	     7.000
  86.440	        34	    1200	     5.831
  86.520	        28	    1200	     5.292
  86.600	        35	    1200	     5.916
  86.680	        20	    1200	     4.472
  86.760	        21	    1200	     4.583
  86.840	        22	    1200	     4.690
  86.920	        19	    1200	     4.359
  87.000	        16	    1200	     4.000
  87.080	        18	    1200	     4.243
  87.160	        16	    1200	     4.000
  87.240	        14	    1200	     3.742
  87.320	        18	    1200	     4.243
  87.400	         9	    1200	     3.000
  87.480	        17	    1200	     4.123
  87.560	        13	    1200	     3.606
  87.640	        17	    1200	     4.123
  87.720	        14	    1200	     3.742
  87.800	        21	    1200	     4.583
  87.880	        11	    1200	     3.317
  87.960	        14	    1200	     3.742
  88.040	        13	    1200	     3.606
  88.120	        18	    1200	     4.243
  88.200	        15	    1200	     3.873
  88.280	        21	    1200	     4.583
  88.360	        10	    1200	     3.162
  88.440	        11	    1200	     3.317
  88.520	        17	    1200	     4.123
  88.600	        14	    1200	     3.742
  88.680	        22	    1200	     4.690
  88.760	        11	    1200	     3.317
  88.840	        14	    1200	     3.742
  88.920	        19	    1200	     4.359
  89.000	        17	    1200	     4.123
  89.080	        16	    1200	     4.000
  89.160	        18	    1200	     4.243
  89.240	        19	    1200	     4.359
  89.320	        11	    1200	     3.317
  89.400	         8	    1200	     2.828
  89.480	        17	    1200	     4.123
  89.560	        19	    1200	     4.359
  89.640	        17	    1200	     4.123
  89.720	        16	    1200	     4.000
  89.800	        18	    1200	     4.243
  89.880	        15	    1200	     3.873
  89.960	        16	    1200	     4.000
  90.000	        19	    1200	     4.359