File: Ex Situ XRD/STF7 850C 97H2 4Hr.txt
         ID:

    Comment:

Scan Type: Normal
Start Angle: 15 deg.
Stop Angle: 90 deg.
Num Points: 3751
Step Size: 0.02 deg.
Datafile Res: 1600
Scan Rate: 1.000000
Scan Mode: Continuous
Wavelength: 1.540562

Diffractometer Optics:
		Detector:
			 Type: Fixed Slits
			 X2 Configuration: No
		Tube:
			 Type: Fixed Slits
			 X2 Configuration: No

Axis[0]
	 Selected   : no
	 Iterative  : no
	 Start Angle: 0.000000
	 Stop Angle : 0.000000
	 Step Size  : 0.000000
	 Oscillating: no

Axis[1]
	 Selected   : no
	 Iterative  : no
	 Start Angle: 0.000000
	 Stop Angle : 0.000000
	 Step Size  : 0.000000
	 Oscillating: no

Axis[2]
	 Selected   : no
	 Iterative  : no
	 Start Angle: 0.000000
	 Stop Angle : 0.000000
	 Step Size  : 0.000000
	 Oscillating: no

Axis[3]
	 Selected   : no
	 Iterative  : no
	 Start Angle: 0.000000
	 Stop Angle : 0.000000
	 Step Size  : 0.000000
	 Oscillating: no

Axis[4]
	 Selected   : no
	 Iterative  : no
	 Start Angle: 0.000000
	 Stop Angle : 0.000000
	 Step Size  : 0.000000
	 Oscillating: no

Axis[5]
	 Selected   : no
	 Iterative  : no
	 Start Angle: 0.000000
	 Stop Angle : 0.000000
	 Step Size  : 0.000000
	 Oscillating: no

Axis[6]
	 Selected   : no
	 Iterative  : no
	 Start Angle: 0.000000
	 Stop Angle : 0.000000
	 Step Size  : 0.000000
	 Oscillating: no

Axis[7]
	 Selected   : no
	 Iterative  : no
	 Start Angle: 0.000000
	 Stop Angle : 0.000000
	 Step Size  : 0.000000
	 Oscillating: no

Axis[8]
	 Selected   : no
	 Iterative  : no
	 Start Angle: 0.000000
	 Stop Angle : 0.000000
	 Step Size  : 0.000000
	 Oscillating: no

Axis[9]
	 Selected   : no
	 Iterative  : no
	 Start Angle: 0.000000
	 Stop Angle : 0.000000
	 Step Size  : 0.000000
	 Oscillating: no

	   Deg.    Counts 	   Time 	    ESD

Range 0
  15.000	        97	    1200	     9.849
  15.080	        94	    1200	     9.695
  15.160	       102	    1200	    10.100
  15.240	        97	    1200	     9.849
  15.320	       100	    1200	    10.000
  15.400	        98	    1200	     9.899
  15.480	       117	    1200	    10.817
  15.560	        89	    1200	     9.434
  15.640	       112	    1200	    10.583
  15.720	        86	    1200	     9.274
  15.800	       120	    1200	    10.954
  15.880	        91	    1200	     9.539
  15.960	       105	    1200	    10.247
  16.040	       100	    1200	    10.000
  16.120	       103	    1200	    10.149
  16.200	        98	    1200	     9.899
  16.280	       109	    1200	    10.440
  16.360	        96	    1200	     9.798
  16.440	        93	    1200	     9.644
  16.520	       103	    1200	    10.149
  16.600	       113	    1200	    10.630
  16.680	        94	    1200	     9.695
  16.760	       104	    1200	    10.198
  16.840	        93	    1200	     9.644
  16.920	        92	    1200	     9.592
  17.000	        88	    1200	     9.381
  17.080	        87	    1200	     9.327
  17.160	       102	    1200	    10.100
  17.240	        93	    1200	     9.644
  17.320	        84	    1200	     9.165
  17.400	       102	    1200	    10.100
  17.480	        83	    1200	     9.110
  17.560	        84	    1200	     9.165
  17.640	       100	    1200	    10.000
  17.720	       100	    1200	    10.000
  17.800	        92	    1200	     9.592
  17.880	        96	    1200	     9.798
  17.960	        89	    1200	     9.434
  18.040	        87	    1200	     9.327
  18.120	        94	    1200	     9.695
  18.200	        91	    1200	     9.539
  18.280	       106	    1200	    10.296
  18.360	       100	    1200	    10.000
  18.440	       101	    1200	    10.050
  18.520	        92	    1200	     9.592
  18.600	        99	    1200	     9.950
  18.680	        98	    1200	     9.899
  18.760	        97	    1200	     9.849
  18.840	       102	    1200	    10.100
  18.920	        98	    1200	     9.899
  19.000	       132	    1200	    11.489
  19.080	       106	    1200	    10.296
  19.160	       101	    1200	    10.050
  19.240	        99	    1200	     9.950
  19.320	       103	    1200	    10.149
  19.400	       109	    1200	    10.440
  19.480	        85	    1200	     9.220
  19.560	        93	    1200	     9.644
  19.640	       109	    1200	    10.440
  19.720	        74	    1200	     8.602
  19.800	        93	    1200	     9.644
  19.880	        89	    1200	     9.434
  19.960	        83	    1200	     9.110
  20.040	        90	    1200	     9.487
  20.120	       102	    1200	    10.100
  20.200	        91	    1200	     9.539
  20.280	       100	    1200	    10.000
  20.360	       101	    1200	    10.050
  20.440	       125	    1200	    11.180
  20.520	        82	    1200	     9.055
  20.600	       111	    1200	    10.536
  20.680	       100	    1200	    10.000
  20.760	       112	    1200	    10.583
  20.840	       109	    1200	    10.440
  20.920	       104	    1200	    10.198
  21.000	       104	    1200	    10.198
  21.080	       108	    1200	    10.392
  21.160	       106	    1200	    10.296
  21.240	        86	    1200	     9.274
  21.320	       106	    1200	    10.296
  21.400	       121	    1200	    11.000
  21.480	       100	    1200	    10.000
  21.560	       111	    1200	    10.536
  21.640	       103	    1200	    10.149
  21.720	       106	    1200	    10.296
  21.800	       109	    1200	    10.440
  21.880	       118	    1200	    10.863
  21.960	        98	    1200	     9.899
  22.040	       100	    1200	    10.000
  22.120	       107	    1200	    10.344
  22.200	       103	    1200	    10.149
  22.280	        98	    1200	     9.899
  22.360	       103	    1200	    10.149
  22.440	       102	    1200	    10.100
  22.520	       117	    1200	    10.817
  22.600	       112	    1200	    10.583
  22.680	       131	    1200	    11.446
  22.760	       111	    1200	    10.536
  22.840	       124	    1200	    11.136
  22.920	       134	    1200	    11.576
  23.000	       117	    1200	    10.817
  23.080	       121	    1200	    11.000
  23.160	       129	    1200	    11.358
  23.240	       103	    1200	    10.149
  23.320	       108	    1200	    10.392
  23.400	       114	    1200	    10.677
  23.480	       131	    1200	    11.446
  23.560	       106	    1200	    10.296
  23.640	       102	    1200	    10.100
  23.720	       120	    1200	    10.954
  23.800	       108	    1200	    10.392
  23.880	       115	    1200	    10.724
  23.960	       101	    1200	    10.050
  24.040	        83	    1200	     9.110
  24.120	        97	    1200	     9.849
  24.200	        90	    1200	     9.487
  24.280	       100	    1200	    10.000
  24.360	        96	    1200	     9.798
  24.440	       107	    1200	    10.344
  24.520	        96	    1200	     9.798
  24.600	       116	    1200	    10.770
  24.680	        89	    1200	     9.434
  24.760	        85	    1200	     9.220
  24.840	       100	    1200	    10.000
  24.920	        87	    1200	     9.327
  25.000	        99	    1200	     9.950
  25.080	        94	    1200	     9.695
  25.160	        87	    1200	     9.327
  25.240	        83	    1200	     9.110
  25.320	        93	    1200	     9.644
  25.400	        93	    1200	     9.644
  25.480	        84	    1200	     9.165
  25.560	        89	    1200	     9.434
  25.640	        74	    1200	     8.602
  25.720	        88	    1200	     9.381
  25.800	        72	    1200	     8.485
  25.880	        84	    1200	     9.165
  25.960	        70	    1200	     8.367
  26.040	        74	    1200	     8.602
  26.120	        85	    1200	     9.220
  26.200	        91	    1200	     9.539
  26.280	        76	    1200	     8.718
  26.360	        74	    1200	     8.602
  26.440	        91	    1200	     9.539
  26.520	        67	    1200	     8.185
  26.600	        87	    1200	     9.327
  26.680	        71	    1200	     8.426
  26.760	        81	    1200	     9.000
  26.840	        76	    1200	     8.718
  26.920	        60	    1200	     7.746
  27.000	        62	    1200	     7.874
  27.080	        80	    1200	     8.944
  27.160	        75	    1200	     8.660
  27.240	        63	    1200	     7.937
  27.320	        75	    1200	     8.660
  27.400	        59	    1200	     7.681
  27.480	        65	    1200	     8.062
  27.560	        84	    1200	     9.165
  27.640	        66	    1200	     8.124
  27.720	        72	    1200	     8.485
  27.800	        79	    1200	     8.888
  27.880	        73	    1200	     8.544
  27.960	        78	    1200	     8.832
  28.040	        72	    1200	     8.485
  28.120	        56	    1200	     7.483
  28.200	        72	    1200	     8.485
  28.280	        75	    1200	     8.660
  28.360	        67	    1200	     8.185
  28.440	        48	    1200	     6.928
  28.520	        64	    1200	     8.000
  28.600	        65	    1200	     8.062
  28.680	        70	    1200	     8.367
  28.760	        64	    1200	     8.000
  28.840	        57	    1200	     7.550
  28.920	        63	    1200	     7.937
  29.000	        44	    1200	     6.633
  29.080	        67	    1200	     8.185
  29.160	        52	    1200	     7.211
  29.240	        59	    1200	     7.681
  29.320	        61	    1200	     7.810
  29.400	        73	    1200	     8.544
  29.480	        61	    1200	     7.810
  29.560	        54	    1200	     7.348
  29.640	        59	    1200	     7.681
  29.720	        61	    1200	     7.810
  29.800	        75	    1200	     8.660
  29.880	        58	    1200	     7.616
  29.960	        76	    1200	     8.718
  30.040	        78	    1200	     8.832
  30.120	        56	    1200	     7.483
  30.200	        64	    1200	     8.000
  30.280	        55	    1200	     7.416
  30.360	        59	    1200	     7.681
  30.440	        63	    1200	     7.937
  30.520	        71	    1200	     8.426
  30.600	        60	    1200	     7.746
  30.680	        70	    1200	     8.367
  30.760	        59	    1200	     7.681
  30.840	        67	    1200	     8.185
  30.920	        63	    1200	     7.937
  31.000	        69	    1200	     8.307
  31.080	        68	    1200	     8.246
  31.160	        68	    1200	     8.246
  31.240	        72	    1200	     8.485
  31.320	        93	    1200	     9.644
  31.400	       149	    1200	    12.207
  31.480	       236	    1200	    15.362
  31.560	       301	    1200	    17.349
  31.640	       419	    1200	    20.469
  31.720	       546	    1200	    23.367
  31.800	       481	    1200	    21.932
  31.880	       329	    1200	    18.138
  31.960	       229	    1200	    15.133
  32.040	       283	    1200	    16.823
  32.120	       456	    1200	    21.354
  32.200	       824	    1200	    28.705
  32.280	      1234	    1200	    35.128
  32.360	      1129	    1200	    33.601
  32.440	       745	    1200	    27.295
  32.520	       361	    1200	    19.000
  32.600	       209	    1200	    14.457
  32.680	       134	    1200	    11.576
  32.760	        87	    1200	     9.327
  32.840	        98	    1200	     9.899
  32.920	        60	    1200	     7.746
  33.000	        71	    1200	     8.426
  33.080	        66	    1200	     8.124
  33.160	        54	    1200	     7.348
  33.240	        59	    1200	     7.681
  33.320	        50	    1200	     7.071
  33.400	        53	    1200	     7.280
  33.480	        57	    1200	     7.550
  33.560	        70	    1200	     8.367
  33.640	        37	    1200	     6.083
  33.720	        50	    1200	     7.071
  33.800	        50	    1200	     7.071
  33.880	        50	    1200	     7.071
  33.960	        50	    1200	     7.071
  34.040	        35	    1200	     5.916
  34.120	        38	    1200	     6.164
  34.200	        34	    1200	     5.831
  34.280	        44	    1200	     6.633
  34.360	        43	    1200	     6.557
  34.440	        40	    1200	     6.325
  34.520	        39	    1200	     6.245
  34.600	        40	    1200	     6.325
  34.680	        29	    1200	     5.385
  34.760	        51	    1200	     7.141
  34.840	        32	    1200	     5.657
  34.920	        34	    1200	     5.831
  35.000	        38	    1200	     6.164
  35.080	        47	    1200	     6.856
  35.160	        26	    1200	     5.099
  35.240	        34	    1200	     5.831
  35.320	        25	    1200	     5.000
  35.400	        41	    1200	     6.403
  35.480	        30	    1200	     5.477
  35.560	        33	    1200	     5.745
  35.640	        34	    1200	     5.831
  35.720	        29	    1200	     5.385
  35.800	        31	    1200	     5.568
  35.880	        36	    1200	     6.000
  35.960	        31	    1200	     5.568
  36.040	        34	    1200	     5.831
  36.120	        45	    1200	     6.708
  36.200	        30	    1200	     5.477
  36.280	        36	    1200	     6.000
  36.360	        35	    1200	     5.916
  36.440	        34	    1200	     5.831
  36.520	        37	    1200	     6.083
  36.600	        29	    1200	     5.385
  36.680	        31	    1200	     5.568
  36.760	        34	    1200	     5.831
  36.840	        32	    1200	     5.657
  36.920	        25	    1200	     5.000
  37.000	        26	    1200	     5.099
  37.080	        23	    1200	     4.796
  37.160	        26	    1200	     5.099
  37.240	        29	    1200	     5.385
  37.320	        30	    1200	     5.477
  37.400	        19	    1200	     4.359
  37.480	        31	    1200	     5.568
  37.560	        41	    1200	     6.403
  37.640	        28	    1200	     5.292
  37.720	        39	    1200	     6.245
  37.800	        36	    1200	     6.000
  37.880	        32	    1200	     5.657
  37.960	        25	    1200	     5.000
  38.040	        29	    1200	     5.385
  38.120	        29	    1200	     5.385
  38.200	        25	    1200	     5.000
  38.280	        30	    1200	     5.477
  38.360	        31	    1200	     5.568
  38.440	        43	    1200	     6.557
  38.520	        31	    1200	     5.568
  38.600	        37	    1200	     6.083
  38.680	        34	    1200	     5.831
  38.760	        34	    1200	     5.831
  38.840	        33	    1200	     5.745
  38.920	        32	    1200	     5.657
  39.000	        36	    1200	     6.000
  39.080	        25	    1200	     5.000
  39.160	        29	    1200	     5.385
  39.240	        26	    1200	     5.099
  39.320	        39	    1200	     6.245
  39.400	        24	    1200	     4.899
  39.480	        32	    1200	     5.657
  39.560	        45	    1200	     6.708
  39.640	        68	    1200	     8.246
  39.720	       100	    1200	    10.000
  39.800	       127	    1200	    11.269
  39.880	       123	    1200	    11.091
  39.960	        88	    1200	     9.381
  40.040	        73	    1200	     8.544
  40.120	        66	    1200	     8.124
  40.200	        45	    1200	     6.708
  40.280	        36	    1200	     6.000
  40.360	        34	    1200	     5.831
  40.440	        43	    1200	     6.557
  40.520	        40	    1200	     6.325
  40.600	        26	    1200	     5.099
  40.680	        35	    1200	     5.916
  40.760	        32	    1200	     5.657
  40.840	        32	    1200	     5.657
  40.920	        34	    1200	     5.831
  41.000	        51	    1200	     7.141
  41.080	        56	    1200	     7.483
  41.160	       100	    1200	    10.000
  41.240	       105	    1200	    10.247
  41.320	       115	    1200	    10.724
  41.400	       117	    1200	    10.817
  41.480	       110	    1200	    10.488
  41.560	        66	    1200	     8.124
  41.640	        57	    1200	     7.550
  41.720	        52	    1200	     7.211
  41.800	        60	    1200	     7.746
  41.880	        54	    1200	     7.348
  41.960	        46	    1200	     6.782
  42.040	        35	    1200	     5.916
  42.120	        39	    1200	     6.245
  42.200	        25	    1200	     5.000
  42.280	        32	    1200	     5.657
  42.360	        29	    1200	     5.385
  42.440	        30	    1200	     5.477
  42.520	        28	    1200	     5.292
  42.600	        12	    1200	     3.464
  42.680	        20	    1200	     4.472
  42.760	        20	    1200	     4.472
  42.840	        23	    1200	     4.796
  42.920	        24	    1200	     4.899
  43.000	        23	    1200	     4.796
  43.080	        31	    1200	     5.568
  43.160	        23	    1200	     4.796
  43.240	        32	    1200	     5.657
  43.320	        24	    1200	     4.899
  43.400	        17	    1200	     4.123
  43.480	        25	    1200	     5.000
  43.560	        23	    1200	     4.796
  43.640	        20	    1200	     4.472
  43.720	        24	    1200	     4.899
  43.800	        31	    1200	     5.568
  43.880	        35	    1200	     5.916
  43.960	        34	    1200	     5.831
  44.040	        33	    1200	     5.745
  44.120	        38	    1200	     6.164
  44.200	        52	    1200	     7.211
  44.280	        73	    1200	     8.544
  44.360	        78	    1200	     8.832
  44.440	       122	    1200	    11.045
  44.520	       211	    1200	    14.526
  44.600	       208	    1200	    14.422
  44.680	       177	    1200	    13.304
  44.760	       124	    1200	    11.136
  44.840	        89	    1200	     9.434
  44.920	        65	    1200	     8.062
  45.000	        45	    1200	     6.708
  45.080	        43	    1200	     6.557
  45.160	        45	    1200	     6.708
  45.240	        48	    1200	     6.928
  45.320	        43	    1200	     6.557
  45.400	        44	    1200	     6.633
  45.480	        46	    1200	     6.782
  45.560	        64	    1200	     8.000
  45.640	        60	    1200	     7.746
  45.720	        60	    1200	     7.746
  45.800	        71	    1200	     8.426
  45.880	        61	    1200	     7.810
  45.960	        75	    1200	     8.660
  46.040	        97	    1200	     9.849
  46.120	       129	    1200	    11.358
  46.200	       206	    1200	    14.353
  46.280	       354	    1200	    18.815
  46.360	       486	    1200	    22.045
  46.440	       560	    1200	    23.664
  46.520	       469	    1200	    21.656
  46.600	       330	    1200	    18.166
  46.680	       166	    1200	    12.884
  46.760	        97	    1200	     9.849
  46.840	        88	    1200	     9.381
  46.920	        59	    1200	     7.681
  47.000	        45	    1200	     6.708
  47.080	        27	    1200	     5.196
  47.160	        29	    1200	     5.385
  47.240	        27	    1200	     5.196
  47.320	        26	    1200	     5.099
  47.400	        30	    1200	     5.477
  47.480	        16	    1200	     4.000
  47.560	        27	    1200	     5.196
  47.640	        21	    1200	     4.583
  47.720	        34	    1200	     5.831
  47.800	        24	    1200	     4.899
  47.880	        21	    1200	     4.583
  47.960	        21	    1200	     4.583
  48.040	        21	    1200	     4.583
  48.120	        33	    1200	     5.745
  48.200	        26	    1200	     5.099
  48.280	        21	    1200	     4.583
  48.360	        18	    1200	     4.243
  48.440	        21	    1200	     4.583
  48.520	        20	    1200	     4.472
  48.600	        17	    1200	     4.123
  48.680	        15	    1200	     3.873
  48.760	        12	    1200	     3.464
  48.840	        25	    1200	     5.000
  48.920	        16	    1200	     4.000
  49.000	        21	    1200	     4.583
  49.080	        19	    1200	     4.359
  49.160	        14	    1200	     3.742
  49.240	         9	    1200	     3.000
  49.320	        17	    1200	     4.123
  49.400	        13	    1200	     3.606
  49.480	        13	    1200	     3.606
  49.560	         9	    1200	     3.000
  49.640	        11	    1200	     3.317
  49.720	        14	    1200	     3.742
  49.800	        14	    1200	     3.742
  49.880	        20	    1200	     4.472
  49.960	        14	    1200	     3.742
  50.040	        14	    1200	     3.742
  50.120	        16	    1200	     4.000
  50.200	        17	    1200	     4.123
  50.280	        14	    1200	     3.742
  50.360	         9	    1200	     3.000
  50.440	        18	    1200	     4.243
  50.520	        10	    1200	     3.162
  50.600	        28	    1200	     5.292
  50.680	        13	    1200	     3.606
  50.760	        17	    1200	     4.123
  50.840	        13	    1200	     3.606
  50.920	        15	    1200	     3.873
  51.000	        24	    1200	     4.899
  51.080	         6	    1200	     2.449
  51.160	        26	    1200	     5.099
  51.240	        21	    1200	     4.583
  51.320	        15	    1200	     3.873
  51.400	        22	    1200	     4.690
  51.480	        17	    1200	     4.123
  51.560	        20	    1200	     4.472
  51.640	        22	    1200	     4.690
  51.720	        19	    1200	     4.359
  51.800	        17	    1200	     4.123
  51.880	        18	    1200	     4.243
  51.960	        16	    1200	     4.000
  52.040	        25	    1200	     5.000
  52.120	        19	    1200	     4.359
  52.200	        27	    1200	     5.196
  52.280	        34	    1200	     5.831
  52.360	        33	    1200	     5.745
  52.440	        33	    1200	     5.745
  52.520	        35	    1200	     5.916
  52.600	        19	    1200	     4.359
  52.680	        21	    1200	     4.583
  52.760	        13	    1200	     3.606
  52.840	        20	    1200	     4.472
  52.920	        17	    1200	     4.123
  53.000	        21	    1200	     4.583
  53.080	        27	    1200	     5.196
  53.160	        35	    1200	     5.916
  53.240	        29	    1200	     5.385
  53.320	        22	    1200	     4.690
  53.400	        32	    1200	     5.657
  53.480	        29	    1200	     5.385
  53.560	        28	    1200	     5.292
  53.640	        36	    1200	     6.000
  53.720	        28	    1200	     5.292
  53.800	        27	    1200	     5.196
  53.880	        29	    1200	     5.385
  53.960	        27	    1200	     5.196
  54.040	        23	    1200	     4.796
  54.120	        16	    1200	     4.000
  54.200	        19	    1200	     4.359
  54.280	        17	    1200	     4.123
  54.360	        22	    1200	     4.690
  54.440	        28	    1200	     5.292
  54.520	        24	    1200	     4.899
  54.600	        26	    1200	     5.099
  54.680	        21	    1200	     4.583
  54.760	        15	    1200	     3.873
  54.840	        26	    1200	     5.099
  54.920	        13	    1200	     3.606
  55.000	        22	    1200	     4.690
  55.080	        22	    1200	     4.690
  55.160	        19	    1200	     4.359
  55.240	        22	    1200	     4.690
  55.320	        20	    1200	     4.472
  55.400	        22	    1200	     4.690
  55.480	        27	    1200	     5.196
  55.560	        28	    1200	     5.292
  55.640	        38	    1200	     6.164
  55.720	        39	    1200	     6.245
  55.800	        45	    1200	     6.708
  55.880	        51	    1200	     7.141
  55.960	        49	    1200	     7.000
  56.040	        59	    1200	     7.681
  56.120	        86	    1200	     9.274
  56.200	        77	    1200	     8.775
  56.280	        69	    1200	     8.307
  56.360	        76	    1200	     8.718
  56.440	        57	    1200	     7.550
  56.520	        44	    1200	     6.633
  56.600	        48	    1200	     6.928
  56.680	        41	    1200	     6.403
  56.760	        46	    1200	     6.782
  56.840	        68	    1200	     8.246
  56.920	        51	    1200	     7.141
  57.000	        68	    1200	     8.246
  57.080	        94	    1200	     9.695
  57.160	       120	    1200	    10.954
  57.240	       182	    1200	    13.491
  57.320	       294	    1200	    17.146
  57.400	       334	    1200	    18.276
  57.480	       388	    1200	    19.698
  57.560	       389	    1200	    19.723
  57.640	       386	    1200	    19.647
  57.720	       357	    1200	    18.894
  57.800	       240	    1200	    15.492
  57.880	       217	    1200	    14.731
  57.960	       129	    1200	    11.358
  58.040	       104	    1200	    10.198
  58.120	        85	    1200	     9.220
  58.200	        76	    1200	     8.718
  58.280	        51	    1200	     7.141
  58.360	        69	    1200	     8.307
  58.440	        35	    1200	     5.916
  58.520	        40	    1200	     6.325
  58.600	        35	    1200	     5.916
  58.680	        26	    1200	     5.099
  58.760	        34	    1200	     5.831
  58.840	        20	    1200	     4.472
  58.920	        24	    1200	     4.899
  59.000	        21	    1200	     4.583
  59.080	        18	    1200	     4.243
  59.160	        26	    1200	     5.099
  59.240	        25	    1200	     5.000
  59.320	        27	    1200	     5.196
  59.400	        15	    1200	     3.873
  59.480	        28	    1200	     5.292
  59.560	        11	    1200	     3.317
  59.640	        19	    1200	     4.359
  59.720	        25	    1200	     5.000
  59.800	        19	    1200	     4.359
  59.880	        25	    1200	     5.000
  59.960	        22	    1200	     4.690
  60.040	        20	    1200	     4.472
  60.120	        20	    1200	     4.472
  60.200	        15	    1200	     3.873
  60.280	        21	    1200	     4.583
  60.360	        20	    1200	     4.472
  60.440	        19	    1200	     4.359
  60.520	        16	    1200	     4.000
  60.600	        21	    1200	     4.583
  60.680	        16	    1200	     4.000
  60.760	        12	    1200	     3.464
  60.840	        20	    1200	     4.472
  60.920	        22	    1200	     4.690
  61.000	        17	    1200	     4.123
  61.080	        18	    1200	     4.243
  61.160	        19	    1200	     4.359
  61.240	        19	    1200	     4.359
  61.320	        14	    1200	     3.742
  61.400	        18	    1200	     4.243
  61.480	        21	    1200	     4.583
  61.560	        20	    1200	     4.472
  61.640	        19	    1200	     4.359
  61.720	        24	    1200	     4.899
  61.800	        21	    1200	     4.583
  61.880	        14	    1200	     3.742
  61.960	        18	    1200	     4.243
  62.040	        16	    1200	     4.000
  62.120	        16	    1200	     4.000
  62.200	        20	    1200	     4.472
  62.280	        18	    1200	     4.243
  62.360	        19	    1200	     4.359
  62.440	        22	    1200	     4.690
  62.520	        12	    1200	     3.464
  62.600	        13	    1200	     3.606
  62.680	        13	    1200	     3.606
  62.760	        15	    1200	     3.873
  62.840	        16	    1200	     4.000
  62.920	        13	    1200	     3.606
  63.000	        18	    1200	     4.243
  63.080	        14	    1200	     3.742
  63.160	        23	    1200	     4.796
  63.240	        10	    1200	     3.162
  63.320	        15	    1200	     3.873
  63.400	        15	    1200	     3.873
  63.480	        19	    1200	     4.359
  63.560	        15	    1200	     3.873
  63.640	        23	    1200	     4.796
  63.720	        23	    1200	     4.796
  63.800	        22	    1200	     4.690
  63.880	        23	    1200	     4.796
  63.960	        22	    1200	     4.690
  64.040	        27	    1200	     5.196
  64.120	        26	    1200	     5.099
  64.200	        30	    1200	     5.477
  64.280	        24	    1200	     4.899
  64.360	        25	    1200	     5.000
  64.440	        24	    1200	     4.899
  64.520	        20	    1200	     4.472
  64.600	        19	    1200	     4.359
  64.680	        30	    1200	     5.477
  64.760	        33	    1200	     5.745
  64.840	        39	    1200	     6.245
  64.920	        40	    1200	     6.325
  65.000	        32	    1200	     5.657
  65.080	        39	    1200	     6.245
  65.160	        28	    1200	     5.292
  65.240	        25	    1200	     5.000
  65.320	        16	    1200	     4.000
  65.400	        19	    1200	     4.359
  65.480	        24	    1200	     4.899
  65.560	        19	    1200	     4.359
  65.640	        15	    1200	     3.873
  65.720	        23	    1200	     4.796
  65.800	        19	    1200	     4.359
  65.880	        32	    1200	     5.657
  65.960	        39	    1200	     6.245
  66.040	        37	    1200	     6.083
  66.120	        36	    1200	     6.000
  66.200	        46	    1200	     6.782
  66.280	        50	    1200	     7.071
  66.360	        62	    1200	     7.874
  66.440	        56	    1200	     7.483
  66.520	        81	    1200	     9.000
  66.600	        46	    1200	     6.782
  66.680	        53	    1200	     7.280
  66.760	        47	    1200	     6.856
  66.840	        49	    1200	     7.000
  66.920	        25	    1200	     5.000
  67.000	        45	    1200	     6.708
  67.080	        36	    1200	     6.000
  67.160	        43	    1200	     6.557
  67.240	        64	    1200	     8.000
  67.320	        47	    1200	     6.856
  67.400	        71	    1200	     8.426
  67.480	       108	    1200	    10.392
  67.560	       140	    1200	    11.832
  67.640	       165	    1200	    12.845
  67.720	       192	    1200	    13.856
  67.800	       213	    1200	    14.595
  67.880	       199	    1200	    14.107
  67.960	       146	    1200	    12.083
  68.040	       120	    1200	    10.954
  68.120	       105	    1200	    10.247
  68.200	        76	    1200	     8.718
  68.280	        63	    1200	     7.937
  68.360	        43	    1200	     6.557
  68.440	        27	    1200	     5.196
  68.520	        38	    1200	     6.164
  68.600	        33	    1200	     5.745
  68.680	        30	    1200	     5.477
  68.760	        24	    1200	     4.899
  68.840	        26	    1200	     5.099
  68.920	        17	    1200	     4.123
  69.000	        17	    1200	     4.123
  69.080	        19	    1200	     4.359
  69.160	        12	    1200	     3.464
  69.240	        19	    1200	     4.359
  69.320	        20	    1200	     4.472
  69.400	        19	    1200	     4.359
  69.480	        11	    1200	     3.317
  69.560	        18	    1200	     4.243
  69.640	        18	    1200	     4.243
  69.720	        28	    1200	     5.292
  69.800	        23	    1200	     4.796
  69.880	        20	    1200	     4.472
  69.960	        17	    1200	     4.123
  70.040	        18	    1200	     4.243
  70.120	        10	    1200	     3.162
  70.200	         9	    1200	     3.000
  70.280	        20	    1200	     4.472
  70.360	        18	    1200	     4.243
  70.440	        22	    1200	     4.690
  70.520	        17	    1200	     4.123
  70.600	        12	    1200	     3.464
  70.680	        17	    1200	     4.123
  70.760	        11	    1200	     3.317
  70.840	        15	    1200	     3.873
  70.920	         9	    1200	     3.000
  71.000	        18	    1200	     4.243
  71.080	        12	    1200	     3.464
  71.160	        10	    1200	     3.162
  71.240	        18	    1200	     4.243
  71.320	        13	    1200	     3.606
  71.400	        18	    1200	     4.243
  71.480	        15	    1200	     3.873
  71.560	        11	    1200	     3.317
  71.640	        17	    1200	     4.123
  71.720	        11	    1200	     3.317
  71.800	        13	    1200	     3.606
  71.880	        19	    1200	     4.359
  71.960	         8	    1200	     2.828
  72.040	        23	    1200	     4.796
  72.120	        16	    1200	     4.000
  72.200	        20	    1200	     4.472
  72.280	        15	    1200	     3.873
  72.360	        16	    1200	     4.000
  72.440	        19	    1200	     4.359
  72.520	        36	    1200	     6.000
  72.600	        16	    1200	     4.000
  72.680	        30	    1200	     5.477
  72.760	        21	    1200	     4.583
  72.840	        16	    1200	     4.000
  72.920	        21	    1200	     4.583
  73.000	        16	    1200	     4.000
  73.080	        23	    1200	     4.796
  73.160	        21	    1200	     4.583
  73.240	        29	    1200	     5.385
  73.320	        23	    1200	     4.796
  73.400	        20	    1200	     4.472
  73.480	        27	    1200	     5.196
  73.560	        27	    1200	     5.196
  73.640	        33	    1200	     5.745
  73.720	        28	    1200	     5.292
  73.800	        19	    1200	     4.359
  73.880	        28	    1200	     5.292
  73.960	        31	    1200	     5.568
  74.040	        30	    1200	     5.477
  74.120	        37	    1200	     6.083
  74.200	        24	    1200	     4.899
  74.280	        35	    1200	     5.916
  74.360	        30	    1200	     5.477
  74.440	        27	    1200	     5.196
  74.520	        28	    1200	     5.292
  74.600	        26	    1200	     5.099
  74.680	        26	    1200	     5.099
  74.760	        15	    1200	     3.873
  74.840	        24	    1200	     4.899
  74.920	        20	    1200	     4.472
  75.000	        10	    1200	     3.162
  75.080	        21	    1200	     4.583
  75.160	        16	    1200	     4.000
  75.240	        19	    1200	     4.359
  75.320	        15	    1200	     3.873
  75.400	        20	    1200	     4.472
  75.480	        18	    1200	     4.243
  75.560	        18	    1200	     4.243
  75.640	        26	    1200	     5.099
  75.720	        19	    1200	     4.359
  75.800	        22	    1200	     4.690
  75.880	        16	    1200	     4.000
  75.960	        20	    1200	     4.472
  76.040	        16	    1200	     4.000
  76.120	        24	    1200	     4.899
  76.200	        27	    1200	     5.196
  76.280	        22	    1200	     4.690
  76.360	        24	    1200	     4.899
  76.440	        34	    1200	     5.831
  76.520	        57	    1200	     7.550
  76.600	        42	    1200	     6.481
  76.680	        54	    1200	     7.348
  76.760	        80	    1200	     8.944
  76.840	       101	    1200	    10.050
  76.920	       142	    1200	    11.916
  77.000	       165	    1200	    12.845
  77.080	       154	    1200	    12.410
  77.160	       185	    1200	    13.601
  77.240	       185	    1200	    13.601
  77.320	       127	    1200	    11.269
  77.400	       134	    1200	    11.576
  77.480	       100	    1200	    10.000
  77.560	        68	    1200	     8.246
  77.640	        74	    1200	     8.602
  77.720	        47	    1200	     6.856
  77.800	        36	    1200	     6.000
  77.880	        44	    1200	     6.633
  77.960	        29	    1200	     5.385
  78.040	        47	    1200	     6.856
  78.120	        21	    1200	     4.583
  78.200	        24	    1200	     4.899
  78.280	        21	    1200	     4.583
  78.360	        25	    1200	     5.000
  78.440	        25	    1200	     5.000
  78.520	        20	    1200	     4.472
  78.600	        20	    1200	     4.472
  78.680	        16	    1200	     4.000
  78.760	        14	    1200	     3.742
  78.840	        20	    1200	     4.472
  78.920	        20	    1200	     4.472
  79.000	        19	    1200	     4.359
  79.080	        16	    1200	     4.000
  79.160	        21	    1200	     4.583
  79.240	        25	    1200	     5.000
  79.320	        26	    1200	     5.099
  79.400	        16	    1200	     4.000
  79.480	        16	    1200	     4.000
  79.560	        18	    1200	     4.243
  79.640	        14	    1200	     3.742
  79.720	        20	    1200	     4.472
  79.800	        16	    1200	     4.000
  79.880	        13	    1200	     3.606
  79.960	        19	    1200	     4.359
  80.040	        15	    1200	     3.873
  80.120	         7	    1200	     2.646
  80.200	        20	    1200	     4.472
  80.280	        22	    1200	     4.690
  80.360	        25	    1200	     5.000
  80.440	        24	    1200	     4.899
  80.520	        19	    1200	     4.359
  80.600	        15	    1200	     3.873
  80.680	        16	    1200	     4.000
  80.760	        19	    1200	     4.359
  80.840	        21	    1200	     4.583
  80.920	        21	    1200	     4.583
  81.000	        23	    1200	     4.796
  81.080	        14	    1200	     3.742
  81.160	        18	    1200	     4.243
  81.240	        27	    1200	     5.196
  81.320	        33	    1200	     5.745
  81.400	        32	    1200	     5.657
  81.480	        39	    1200	     6.245
  81.560	        51	    1200	     7.141
  81.640	        40	    1200	     6.325
  81.720	        46	    1200	     6.782
  81.800	        31	    1200	     5.568
  81.880	        41	    1200	     6.403
  81.960	        35	    1200	     5.916
  82.040	        55	    1200	     7.416
  82.120	        51	    1200	     7.141
  82.200	        54	    1200	     7.348
  82.280	        64	    1200	     8.000
  82.360	        52	    1200	     7.211
  82.440	        65	    1200	     8.062
  82.520	        50	    1200	     7.071
  82.600	        44	    1200	     6.633
  82.680	        47	    1200	     6.856
  82.760	        46	    1200	     6.782
  82.840	        52	    1200	     7.211
  82.920	        49	    1200	     7.000
  83.000	        31	    1200	     5.568
  83.080	        36	    1200	     6.000
  83.160	        34	    1200	     5.831
  83.240	        28	    1200	     5.292
  83.320	        22	    1200	     4.690
  83.400	        23	    1200	     4.796
  83.480	        18	    1200	     4.243
  83.560	        20	    1200	     4.472
  83.640	        17	    1200	     4.123
  83.720	        24	    1200	     4.899
  83.800	        19	    1200	     4.359
  83.880	        22	    1200	     4.690
  83.960	        21	    1200	     4.583
  84.040	        18	    1200	     4.243
  84.120	        17	    1200	     4.123
  84.200	        21	    1200	     4.583
  84.280	        30	    1200	     5.477
  84.360	        22	    1200	     4.690
  84.440	        27	    1200	     5.196
  84.520	        27	    1200	     5.196
  84.600	        31	    1200	     5.568
  84.680	        33	    1200	     5.745
  84.760	        34	    1200	     5.831
  84.840	        27	    1200	     5.196
  84.920	        38	    1200	     6.164
  85.000	        34	    1200	     5.831
  85.080	        28	    1200	     5.292
  85.160	        37	    1200	     6.083
  85.240	        34	    1200	     5.831
  85.320	        42	    1200	     6.481
  85.400	        29	    1200	     5.385
  85.480	        31	    1200	     5.568
  85.560	        32	    1200	     5.657
  85.640	        26	    1200	     5.099
  85.720	        39	    1200	     6.245
  85.800	        41	    1200	     6.403
  85.880	        50	    1200	     7.071
  85.960	        52	    1200	     7.211
  86.040	        47	    1200	     6.856
  86.120	        38	    1200	     6.164
  86.200	        44	    1200	     6.633
  86.280	        42	    1200	     6.481
  86.360	        45	    1200	     6.708
  86.440	        46	    1200	     6.782
  86.520	        38	    1200	     6.164
  86.600	        22	    1200	     4.690
  86.680	        30	    1200	     5.477
  86.760	        16	    1200	     4.000
  86.840	        23	    1200	     4.796
  86.920	        21	    1200	     4.583
  87.000	        18	    1200	     4.243
  87.080	        19	    1200	     4.359
  87.160	        20	    1200	     4.472
  87.240	        17	    1200	     4.123
  87.320	        17	    1200	     4.123
  87.400	        14	    1200	     3.742
  87.480	        11	    1200	     3.317
  87.560	        17	    1200	     4.123
  87.640	        18	    1200	     4.243
  87.720	        21	    1200	     4.583
  87.800	        18	    1200	     4.243
  87.880	        18	    1200	     4.243
  87.960	        12	    1200	     3.464
  88.040	        19	    1200	     4.359
  88.120	        14	    1200	     3.742
  88.200	        15	    1200	     3.873
  88.280	        17	    1200	     4.123
  88.360	        22	    1200	     4.690
  88.440	        24	    1200	     4.899
  88.520	        18	    1200	     4.243
  88.600	        14	    1200	     3.742
  88.680	        14	    1200	     3.742
  88.760	        20	    1200	     4.472
  88.840	        20	    1200	     4.472
  88.920	        19	    1200	     4.359
  89.000	        16	    1200	     4.000
  89.080	        22	    1200	     4.690
  89.160	        19	    1200	     4.359
  89.240	        15	    1200	     3.873
  89.320	        12	    1200	     3.464
  89.400	        12	    1200	     3.464
  89.480	        22	    1200	     4.690
  89.560	        21	    1200	     4.583
  89.640	        25	    1200	     5.000
  89.720	        13	    1200	     3.606
  89.800	        13	    1200	     3.606
  89.880	        13	    1200	     3.606
  89.960	        18	    1200	     4.243
  90.000	        17	    1200	     4.123