File: Ex Situ XRD/STF7 Pristine.txt
         ID:

    Comment:

Scan Type: Normal
Start Angle: 15 deg.
Stop Angle: 90 deg.
Num Points: 3751
Step Size: 0.02 deg.
Datafile Res: 1600
Scan Rate: 1.000000
Scan Mode: Continuous
Wavelength: 1.540562

Diffractometer Optics:
		Detector:
			 Type: Fixed Slits
			 X2 Configuration: No
		Tube:
			 Type: Fixed Slits
			 X2 Configuration: No

Axis[0]
	 Selected   : no
	 Iterative  : no
	 Start Angle: 0.000000
	 Stop Angle : 0.000000
	 Step Size  : 0.000000
	 Oscillating: no

Axis[1]
	 Selected   : no
	 Iterative  : no
	 Start Angle: 0.000000
	 Stop Angle : 0.000000
	 Step Size  : 0.000000
	 Oscillating: no

Axis[2]
	 Selected   : no
	 Iterative  : no
	 Start Angle: 0.000000
	 Stop Angle : 0.000000
	 Step Size  : 0.000000
	 Oscillating: no

Axis[3]
	 Selected   : no
	 Iterative  : no
	 Start Angle: 0.000000
	 Stop Angle : 0.000000
	 Step Size  : 0.000000
	 Oscillating: no

Axis[4]
	 Selected   : no
	 Iterative  : no
	 Start Angle: 0.000000
	 Stop Angle : 0.000000
	 Step Size  : 0.000000
	 Oscillating: no

Axis[5]
	 Selected   : no
	 Iterative  : no
	 Start Angle: 0.000000
	 Stop Angle : 0.000000
	 Step Size  : 0.000000
	 Oscillating: no

Axis[6]
	 Selected   : no
	 Iterative  : no
	 Start Angle: 0.000000
	 Stop Angle : 0.000000
	 Step Size  : 0.000000
	 Oscillating: no

Axis[7]
	 Selected   : no
	 Iterative  : no
	 Start Angle: 0.000000
	 Stop Angle : 0.000000
	 Step Size  : 0.000000
	 Oscillating: no

Axis[8]
	 Selected   : no
	 Iterative  : no
	 Start Angle: 0.000000
	 Stop Angle : 0.000000
	 Step Size  : 0.000000
	 Oscillating: no

Axis[9]
	 Selected   : no
	 Iterative  : no
	 Start Angle: 0.000000
	 Stop Angle : 0.000000
	 Step Size  : 0.000000
	 Oscillating: no

	   Deg.    Counts 	   Time 	    ESD

Range 0
  15.000	       122	    1200	    11.045
  15.080	       123	    1200	    11.091
  15.160	       113	    1200	    10.630
  15.240	       134	    1200	    11.576
  15.320	       126	    1200	    11.225
  15.400	       109	    1200	    10.440
  15.480	       120	    1200	    10.954
  15.560	       128	    1200	    11.314
  15.640	       148	    1200	    12.166
  15.720	       103	    1200	    10.149
  15.800	       131	    1200	    11.446
  15.880	       116	    1200	    10.770
  15.960	       124	    1200	    11.136
  16.040	       125	    1200	    11.180
  16.120	       122	    1200	    11.045
  16.200	       130	    1200	    11.402
  16.280	       101	    1200	    10.050
  16.360	       124	    1200	    11.136
  16.440	       128	    1200	    11.314
  16.520	       103	    1200	    10.149
  16.600	       126	    1200	    11.225
  16.680	       131	    1200	    11.446
  16.760	       134	    1200	    11.576
  16.840	       120	    1200	    10.954
  16.920	       137	    1200	    11.705
  17.000	       127	    1200	    11.269
  17.080	       133	    1200	    11.533
  17.160	       124	    1200	    11.136
  17.240	       114	    1200	    10.677
  17.320	       128	    1200	    11.314
  17.400	       117	    1200	    10.817
  17.480	       124	    1200	    11.136
  17.560	       113	    1200	    10.630
  17.640	       113	    1200	    10.630
  17.720	       122	    1200	    11.045
  17.800	       119	    1200	    10.909
  17.880	       132	    1200	    11.489
  17.960	       112	    1200	    10.583
  18.040	       132	    1200	    11.489
  18.120	       132	    1200	    11.489
  18.200	       141	    1200	    11.874
  18.280	       147	    1200	    12.124
  18.360	       114	    1200	    10.677
  18.440	       133	    1200	    11.533
  18.520	       121	    1200	    11.000
  18.600	       130	    1200	    11.402
  18.680	       149	    1200	    12.207
  18.760	       122	    1200	    11.045
  18.840	       122	    1200	    11.045
  18.920	       130	    1200	    11.402
  19.000	       167	    1200	    12.923
  19.080	       149	    1200	    12.207
  19.160	       135	    1200	    11.619
  19.240	       125	    1200	    11.180
  19.320	       133	    1200	    11.533
  19.400	       130	    1200	    11.402
  19.480	       139	    1200	    11.790
  19.560	       130	    1200	    11.402
  19.640	       130	    1200	    11.402
  19.720	       145	    1200	    12.042
  19.800	       128	    1200	    11.314
  19.880	       133	    1200	    11.533
  19.960	       127	    1200	    11.269
  20.040	       150	    1200	    12.247
  20.120	       158	    1200	    12.570
  20.200	       136	    1200	    11.662
  20.280	       137	    1200	    11.705
  20.360	       136	    1200	    11.662
  20.440	       147	    1200	    12.124
  20.520	       137	    1200	    11.705
  20.600	       146	    1200	    12.083
  20.680	       122	    1200	    11.045
  20.760	       140	    1200	    11.832
  20.840	       133	    1200	    11.533
  20.920	       150	    1200	    12.247
  21.000	       147	    1200	    12.124
  21.080	       125	    1200	    11.180
  21.160	       152	    1200	    12.329
  21.240	       133	    1200	    11.533
  21.320	       144	    1200	    12.000
  21.400	       135	    1200	    11.619
  21.480	       125	    1200	    11.180
  21.560	       128	    1200	    11.314
  21.640	       125	    1200	    11.180
  21.720	       139	    1200	    11.790
  21.800	       140	    1200	    11.832
  21.880	       126	    1200	    11.225
  21.960	       154	    1200	    12.410
  22.040	       143	    1200	    11.958
  22.120	       143	    1200	    11.958
  22.200	       147	    1200	    12.124
  22.280	       145	    1200	    12.042
  22.360	       119	    1200	    10.909
  22.440	       152	    1200	    12.329
  22.520	       148	    1200	    12.166
  22.600	       156	    1200	    12.490
  22.680	       212	    1200	    14.560
  22.760	       188	    1200	    13.711
  22.840	       163	    1200	    12.767
  22.920	       136	    1200	    11.662
  23.000	       152	    1200	    12.329
  23.080	       152	    1200	    12.329
  23.160	       142	    1200	    11.916
  23.240	       129	    1200	    11.358
  23.320	       124	    1200	    11.136
  23.400	       118	    1200	    10.863
  23.480	       120	    1200	    10.954
  23.560	       146	    1200	    12.083
  23.640	       136	    1200	    11.662
  23.720	       120	    1200	    10.954
  23.800	       133	    1200	    11.533
  23.880	       130	    1200	    11.402
  23.960	       138	    1200	    11.747
  24.040	       128	    1200	    11.314
  24.120	       119	    1200	    10.909
  24.200	       138	    1200	    11.747
  24.280	       115	    1200	    10.724
  24.360	       111	    1200	    10.536
  24.440	       113	    1200	    10.630
  24.520	       120	    1200	    10.954
  24.600	       110	    1200	    10.488
  24.680	        88	    1200	     9.381
  24.760	       113	    1200	    10.630
  24.840	       131	    1200	    11.446
  24.920	        98	    1200	     9.899
  25.000	       137	    1200	    11.705
  25.080	       109	    1200	    10.440
  25.160	        94	    1200	     9.695
  25.240	       100	    1200	    10.000
  25.320	       121	    1200	    11.000
  25.400	       108	    1200	    10.392
  25.480	       135	    1200	    11.619
  25.560	       113	    1200	    10.630
  25.640	        92	    1200	     9.592
  25.720	       103	    1200	    10.149
  25.800	        98	    1200	     9.899
  25.880	       133	    1200	    11.533
  25.960	       113	    1200	    10.630
  26.040	       118	    1200	    10.863
  26.120	        99	    1200	     9.950
  26.200	        98	    1200	     9.899
  26.280	        99	    1200	     9.950
  26.360	        78	    1200	     8.832
  26.440	        77	    1200	     8.775
  26.520	       106	    1200	    10.296
  26.600	       102	    1200	    10.100
  26.680	        99	    1200	     9.950
  26.760	       115	    1200	    10.724
  26.840	        88	    1200	     9.381
  26.920	        90	    1200	     9.487
  27.000	        84	    1200	     9.165
  27.080	       101	    1200	    10.050
  27.160	        73	    1200	     8.544
  27.240	        85	    1200	     9.220
  27.320	        87	    1200	     9.327
  27.400	        95	    1200	     9.747
  27.480	        75	    1200	     8.660
  27.560	        83	    1200	     9.110
  27.640	        94	    1200	     9.695
  27.720	        74	    1200	     8.602
  27.800	        88	    1200	     9.381
  27.880	        75	    1200	     8.660
  27.960	        81	    1200	     9.000
  28.040	        73	    1200	     8.544
  28.120	        80	    1200	     8.944
  28.200	        82	    1200	     9.055
  28.280	        77	    1200	     8.775
  28.360	        71	    1200	     8.426
  28.440	        66	    1200	     8.124
  28.520	        77	    1200	     8.775
  28.600	        82	    1200	     9.055
  28.680	        71	    1200	     8.426
  28.760	        73	    1200	     8.544
  28.840	        77	    1200	     8.775
  28.920	        68	    1200	     8.246
  29.000	        67	    1200	     8.185
  29.080	        79	    1200	     8.888
  29.160	        69	    1200	     8.307
  29.240	        73	    1200	     8.544
  29.320	        67	    1200	     8.185
  29.400	        66	    1200	     8.124
  29.480	        67	    1200	     8.185
  29.560	        77	    1200	     8.775
  29.640	        65	    1200	     8.062
  29.720	        73	    1200	     8.544
  29.800	        64	    1200	     8.000
  29.880	        69	    1200	     8.307
  29.960	        81	    1200	     9.000
  30.040	        67	    1200	     8.185
  30.120	        79	    1200	     8.888
  30.200	        71	    1200	     8.426
  30.280	        64	    1200	     8.000
  30.360	        76	    1200	     8.718
  30.440	        67	    1200	     8.185
  30.520	        57	    1200	     7.550
  30.600	        71	    1200	     8.426
  30.680	        68	    1200	     8.246
  30.760	        68	    1200	     8.246
  30.840	        68	    1200	     8.246
  30.920	        74	    1200	     8.602
  31.000	        52	    1200	     7.211
  31.080	        79	    1200	     8.888
  31.160	        71	    1200	     8.426
  31.240	        80	    1200	     8.944
  31.320	        67	    1200	     8.185
  31.400	        89	    1200	     9.434
  31.480	        92	    1200	     9.592
  31.560	        96	    1200	     9.798
  31.640	       100	    1200	    10.000
  31.720	        97	    1200	     9.849
  31.800	       115	    1200	    10.724
  31.880	       118	    1200	    10.863
  31.960	       154	    1200	    12.410
  32.040	       226	    1200	    15.033
  32.120	       371	    1200	    19.261
  32.200	       712	    1200	    26.683
  32.280	      1710	    1200	    41.352
  32.360	      3718	    1200	    60.975
  32.440	      4033	    1200	    63.506
  32.520	      2384	    1200	    48.826
  32.600	      1027	    1200	    32.047
  32.680	       406	    1200	    20.149
  32.760	       213	    1200	    14.595
  32.840	       147	    1200	    12.124
  32.920	       125	    1200	    11.180
  33.000	       101	    1200	    10.050
  33.080	        77	    1200	     8.775
  33.160	        86	    1200	     9.274
  33.240	        80	    1200	     8.944
  33.320	        68	    1200	     8.246
  33.400	        60	    1200	     7.746
  33.480	        59	    1200	     7.681
  33.560	        57	    1200	     7.550
  33.640	        64	    1200	     8.000
  33.720	        60	    1200	     7.746
  33.800	        43	    1200	     6.557
  33.880	        53	    1200	     7.280
  33.960	        62	    1200	     7.874
  34.040	        36	    1200	     6.000
  34.120	        65	    1200	     8.062
  34.200	        59	    1200	     7.681
  34.280	        60	    1200	     7.746
  34.360	        33	    1200	     5.745
  34.440	        42	    1200	     6.481
  34.520	        52	    1200	     7.211
  34.600	        38	    1200	     6.164
  34.680	        37	    1200	     6.083
  34.760	        40	    1200	     6.325
  34.840	        37	    1200	     6.083
  34.920	        50	    1200	     7.071
  35.000	        43	    1200	     6.557
  35.080	        41	    1200	     6.403
  35.160	        39	    1200	     6.245
  35.240	        34	    1200	     5.831
  35.320	        37	    1200	     6.083
  35.400	        47	    1200	     6.856
  35.480	        34	    1200	     5.831
  35.560	        36	    1200	     6.000
  35.640	        37	    1200	     6.083
  35.720	        37	    1200	     6.083
  35.800	        35	    1200	     5.916
  35.880	        40	    1200	     6.325
  35.960	        41	    1200	     6.403
  36.040	        39	    1200	     6.245
  36.120	        44	    1200	     6.633
  36.200	        30	    1200	     5.477
  36.280	        37	    1200	     6.083
  36.360	        33	    1200	     5.745
  36.440	        34	    1200	     5.831
  36.520	        27	    1200	     5.196
  36.600	        39	    1200	     6.245
  36.680	        38	    1200	     6.164
  36.760	        28	    1200	     5.292
  36.840	        32	    1200	     5.657
  36.920	        38	    1200	     6.164
  37.000	        28	    1200	     5.292
  37.080	        33	    1200	     5.745
  37.160	        35	    1200	     5.916
  37.240	        26	    1200	     5.099
  37.320	        19	    1200	     4.359
  37.400	        25	    1200	     5.000
  37.480	        39	    1200	     6.245
  37.560	        35	    1200	     5.916
  37.640	        34	    1200	     5.831
  37.720	        30	    1200	     5.477
  37.800	        27	    1200	     5.196
  37.880	        56	    1200	     7.483
  37.960	        29	    1200	     5.385
  38.040	        25	    1200	     5.000
  38.120	        35	    1200	     5.916
  38.200	        25	    1200	     5.000
  38.280	        34	    1200	     5.831
  38.360	        34	    1200	     5.831
  38.440	        40	    1200	     6.325
  38.520	        42	    1200	     6.481
  38.600	        36	    1200	     6.000
  38.680	        31	    1200	     5.568
  38.760	        34	    1200	     5.831
  38.840	        40	    1200	     6.325
  38.920	        28	    1200	     5.292
  39.000	        40	    1200	     6.325
  39.080	        30	    1200	     5.477
  39.160	        31	    1200	     5.568
  39.240	        35	    1200	     5.916
  39.320	        44	    1200	     6.633
  39.400	        43	    1200	     6.557
  39.480	        48	    1200	     6.928
  39.560	        51	    1200	     7.141
  39.640	        52	    1200	     7.211
  39.720	        84	    1200	     9.165
  39.800	       138	    1200	    11.747
  39.880	       266	    1200	    16.310
  39.960	       577	    1200	    24.021
  40.040	       688	    1200	    26.230
  40.120	       517	    1200	    22.738
  40.200	       242	    1200	    15.556
  40.280	       121	    1200	    11.000
  40.360	        60	    1200	     7.746
  40.440	        59	    1200	     7.681
  40.520	        61	    1200	     7.810
  40.600	        43	    1200	     6.557
  40.680	        37	    1200	     6.083
  40.760	        37	    1200	     6.083
  40.840	        25	    1200	     5.000
  40.920	        30	    1200	     5.477
  41.000	        28	    1200	     5.292
  41.080	        34	    1200	     5.831
  41.160	        30	    1200	     5.477
  41.240	        26	    1200	     5.099
  41.320	        37	    1200	     6.083
  41.400	        30	    1200	     5.477
  41.480	        26	    1200	     5.099
  41.560	        31	    1200	     5.568
  41.640	        34	    1200	     5.831
  41.720	        32	    1200	     5.657
  41.800	        33	    1200	     5.745
  41.880	        37	    1200	     6.083
  41.960	        29	    1200	     5.385
  42.040	        51	    1200	     7.141
  42.120	        20	    1200	     4.472
  42.200	        22	    1200	     4.690
  42.280	        30	    1200	     5.477
  42.360	        38	    1200	     6.164
  42.440	        15	    1200	     3.873
  42.520	        25	    1200	     5.000
  42.600	        34	    1200	     5.831
  42.680	        25	    1200	     5.000
  42.760	        27	    1200	     5.196
  42.840	        32	    1200	     5.657
  42.920	        29	    1200	     5.385
  43.000	        28	    1200	     5.292
  43.080	        28	    1200	     5.292
  43.160	        29	    1200	     5.385
  43.240	        27	    1200	     5.196
  43.320	        32	    1200	     5.657
  43.400	        32	    1200	     5.657
  43.480	        31	    1200	     5.568
  43.560	        30	    1200	     5.477
  43.640	        27	    1200	     5.196
  43.720	        26	    1200	     5.099
  43.800	        31	    1200	     5.568
  43.880	        29	    1200	     5.385
  43.960	        31	    1200	     5.568
  44.040	        26	    1200	     5.099
  44.120	        35	    1200	     5.916
  44.200	        30	    1200	     5.477
  44.280	        26	    1200	     5.099
  44.360	        31	    1200	     5.568
  44.440	        28	    1200	     5.292
  44.520	        25	    1200	     5.000
  44.600	        35	    1200	     5.916
  44.680	        32	    1200	     5.657
  44.760	        40	    1200	     6.325
  44.840	        36	    1200	     6.000
  44.920	        32	    1200	     5.657
  45.000	        27	    1200	     5.196
  45.080	        35	    1200	     5.916
  45.160	        38	    1200	     6.164
  45.240	        34	    1200	     5.831
  45.320	        44	    1200	     6.633
  45.400	        34	    1200	     5.831
  45.480	        45	    1200	     6.708
  45.560	        36	    1200	     6.000
  45.640	        41	    1200	     6.403
  45.720	        39	    1200	     6.245
  45.800	        41	    1200	     6.403
  45.880	        73	    1200	     8.544
  45.960	        64	    1200	     8.000
  46.040	        75	    1200	     8.660
  46.120	        94	    1200	     9.695
  46.200	       145	    1200	    12.042
  46.280	       230	    1200	    15.166
  46.360	       330	    1200	    18.166
  46.440	       627	    1200	    25.040
  46.520	      1258	    1200	    35.468
  46.600	      1456	    1200	    38.158
  46.680	      1138	    1200	    33.734
  46.760	       676	    1200	    26.000
  46.840	       378	    1200	    19.442
  46.920	       206	    1200	    14.353
  47.000	       131	    1200	    11.446
  47.080	        99	    1200	     9.950
  47.160	        52	    1200	     7.211
  47.240	        60	    1200	     7.746
  47.320	        49	    1200	     7.000
  47.400	        45	    1200	     6.708
  47.480	        34	    1200	     5.831
  47.560	        40	    1200	     6.325
  47.640	        38	    1200	     6.164
  47.720	        31	    1200	     5.568
  47.800	        37	    1200	     6.083
  47.880	        37	    1200	     6.083
  47.960	        30	    1200	     5.477
  48.040	        39	    1200	     6.245
  48.120	        37	    1200	     6.083
  48.200	        27	    1200	     5.196
  48.280	        25	    1200	     5.000
  48.360	        22	    1200	     4.690
  48.440	        25	    1200	     5.000
  48.520	        37	    1200	     6.083
  48.600	        33	    1200	     5.745
  48.680	        20	    1200	     4.472
  48.760	        24	    1200	     4.899
  48.840	        23	    1200	     4.796
  48.920	        31	    1200	     5.568
  49.000	        24	    1200	     4.899
  49.080	        31	    1200	     5.568
  49.160	        25	    1200	     5.000
  49.240	        29	    1200	     5.385
  49.320	        29	    1200	     5.385
  49.400	        28	    1200	     5.292
  49.480	        12	    1200	     3.464
  49.560	        26	    1200	     5.099
  49.640	        27	    1200	     5.196
  49.720	        22	    1200	     4.690
  49.800	        33	    1200	     5.745
  49.880	        22	    1200	     4.690
  49.960	        27	    1200	     5.196
  50.040	        21	    1200	     4.583
  50.120	        26	    1200	     5.099
  50.200	        21	    1200	     4.583
  50.280	        31	    1200	     5.568
  50.360	        24	    1200	     4.899
  50.440	        23	    1200	     4.796
  50.520	        21	    1200	     4.583
  50.600	        21	    1200	     4.583
  50.680	        21	    1200	     4.583
  50.760	        31	    1200	     5.568
  50.840	        26	    1200	     5.099
  50.920	        28	    1200	     5.292
  51.000	        27	    1200	     5.196
  51.080	        15	    1200	     3.873
  51.160	        25	    1200	     5.000
  51.240	        19	    1200	     4.359
  51.320	        23	    1200	     4.796
  51.400	        17	    1200	     4.123
  51.480	        22	    1200	     4.690
  51.560	        17	    1200	     4.123
  51.640	        29	    1200	     5.385
  51.720	        18	    1200	     4.243
  51.800	        21	    1200	     4.583
  51.880	        26	    1200	     5.099
  51.960	        15	    1200	     3.873
  52.040	        25	    1200	     5.000
  52.120	        25	    1200	     5.000
  52.200	        28	    1200	     5.292
  52.280	        35	    1200	     5.916
  52.360	        61	    1200	     7.810
  52.440	        60	    1200	     7.746
  52.520	        73	    1200	     8.544
  52.600	        63	    1200	     7.937
  52.680	        49	    1200	     7.000
  52.760	        36	    1200	     6.000
  52.840	        40	    1200	     6.325
  52.920	        36	    1200	     6.000
  53.000	        28	    1200	     5.292
  53.080	        20	    1200	     4.472
  53.160	        24	    1200	     4.899
  53.240	        24	    1200	     4.899
  53.320	        18	    1200	     4.243
  53.400	        18	    1200	     4.243
  53.480	        29	    1200	     5.385
  53.560	        21	    1200	     4.583
  53.640	        30	    1200	     5.477
  53.720	        14	    1200	     3.742
  53.800	        19	    1200	     4.359
  53.880	        33	    1200	     5.745
  53.960	        23	    1200	     4.796
  54.040	        32	    1200	     5.657
  54.120	        29	    1200	     5.385
  54.200	        23	    1200	     4.796
  54.280	        34	    1200	     5.831
  54.360	        18	    1200	     4.243
  54.440	        29	    1200	     5.385
  54.520	        27	    1200	     5.196
  54.600	        24	    1200	     4.899
  54.680	        28	    1200	     5.292
  54.760	        30	    1200	     5.477
  54.840	        22	    1200	     4.690
  54.920	        32	    1200	     5.657
  55.000	        26	    1200	     5.099
  55.080	        23	    1200	     4.796
  55.160	        29	    1200	     5.385
  55.240	        28	    1200	     5.292
  55.320	        24	    1200	     4.899
  55.400	        31	    1200	     5.568
  55.480	        30	    1200	     5.477
  55.560	        27	    1200	     5.196
  55.640	        26	    1200	     5.099
  55.720	        18	    1200	     4.243
  55.800	        31	    1200	     5.568
  55.880	        28	    1200	     5.292
  55.960	        38	    1200	     6.164
  56.040	        34	    1200	     5.831
  56.120	        34	    1200	     5.831
  56.200	        20	    1200	     4.472
  56.280	        34	    1200	     5.831
  56.360	        25	    1200	     5.000
  56.440	        22	    1200	     4.690
  56.520	        27	    1200	     5.196
  56.600	        36	    1200	     6.000
  56.680	        23	    1200	     4.796
  56.760	        29	    1200	     5.385
  56.840	        41	    1200	     6.403
  56.920	        40	    1200	     6.325
  57.000	        49	    1200	     7.000
  57.080	        31	    1200	     5.568
  57.160	        42	    1200	     6.481
  57.240	        21	    1200	     4.583
  57.320	        57	    1200	     7.550
  57.400	        76	    1200	     8.718
  57.480	       101	    1200	    10.050
  57.560	       130	    1200	    11.402
  57.640	       182	    1200	    13.491
  57.720	       273	    1200	    16.523
  57.800	       441	    1200	    21.000
  57.880	       827	    1200	    28.758
  57.960	      1250	    1200	    35.355
  58.040	      1187	    1200	    34.453
  58.120	       988	    1200	    31.432
  58.200	       725	    1200	    26.926
  58.280	       390	    1200	    19.748
  58.360	       235	    1200	    15.330
  58.440	       157	    1200	    12.530
  58.520	        97	    1200	     9.849
  58.600	        58	    1200	     7.616
  58.680	        65	    1200	     8.062
  58.760	        45	    1200	     6.708
  58.840	        39	    1200	     6.245
  58.920	        43	    1200	     6.557
  59.000	        43	    1200	     6.557
  59.080	        26	    1200	     5.099
  59.160	        52	    1200	     7.211
  59.240	        44	    1200	     6.633
  59.320	        38	    1200	     6.164
  59.400	        25	    1200	     5.000
  59.480	        41	    1200	     6.403
  59.560	        29	    1200	     5.385
  59.640	        27	    1200	     5.196
  59.720	        39	    1200	     6.245
  59.800	        45	    1200	     6.708
  59.880	        18	    1200	     4.243
  59.960	        26	    1200	     5.099
  60.040	        31	    1200	     5.568
  60.120	        28	    1200	     5.292
  60.200	        33	    1200	     5.745
  60.280	        27	    1200	     5.196
  60.360	        28	    1200	     5.292
  60.440	        28	    1200	     5.292
  60.520	        25	    1200	     5.000
  60.600	        21	    1200	     4.583
  60.680	        29	    1200	     5.385
  60.760	        27	    1200	     5.196
  60.840	        29	    1200	     5.385
  60.920	        25	    1200	     5.000
  61.000	        30	    1200	     5.477
  61.080	        20	    1200	     4.472
  61.160	        28	    1200	     5.292
  61.240	        28	    1200	     5.292
  61.320	        30	    1200	     5.477
  61.400	        23	    1200	     4.796
  61.480	        16	    1200	     4.000
  61.560	        24	    1200	     4.899
  61.640	        28	    1200	     5.292
  61.720	        30	    1200	     5.477
  61.800	        27	    1200	     5.196
  61.880	        22	    1200	     4.690
  61.960	        19	    1200	     4.359
  62.040	        27	    1200	     5.196
  62.120	        22	    1200	     4.690
  62.200	        22	    1200	     4.690
  62.280	        20	    1200	     4.472
  62.360	        17	    1200	     4.123
  62.440	        29	    1200	     5.385
  62.520	        30	    1200	     5.477
  62.600	        22	    1200	     4.690
  62.680	        26	    1200	     5.099
  62.760	        18	    1200	     4.243
  62.840	        17	    1200	     4.123
  62.920	        22	    1200	     4.690
  63.000	        27	    1200	     5.196
  63.080	        12	    1200	     3.464
  63.160	        23	    1200	     4.796
  63.240	        15	    1200	     3.873
  63.320	        22	    1200	     4.690
  63.400	        23	    1200	     4.796
  63.480	        25	    1200	     5.000
  63.560	        29	    1200	     5.385
  63.640	        28	    1200	     5.292
  63.720	        17	    1200	     4.123
  63.800	        26	    1200	     5.099
  63.880	        29	    1200	     5.385
  63.960	        20	    1200	     4.472
  64.040	        26	    1200	     5.099
  64.120	        30	    1200	     5.477
  64.200	        28	    1200	     5.292
  64.280	        22	    1200	     4.690
  64.360	        27	    1200	     5.196
  64.440	        28	    1200	     5.292
  64.520	        27	    1200	     5.196
  64.600	        23	    1200	     4.796
  64.680	        32	    1200	     5.657
  64.760	        33	    1200	     5.745
  64.840	        25	    1200	     5.000
  64.920	        30	    1200	     5.477
  65.000	        22	    1200	     4.690
  65.080	        28	    1200	     5.292
  65.160	        28	    1200	     5.292
  65.240	        31	    1200	     5.568
  65.320	        24	    1200	     4.899
  65.400	        20	    1200	     4.472
  65.480	        27	    1200	     5.196
  65.560	        24	    1200	     4.899
  65.640	        23	    1200	     4.796
  65.720	        35	    1200	     5.916
  65.800	        32	    1200	     5.657
  65.880	        28	    1200	     5.292
  65.960	        27	    1200	     5.196
  66.040	        22	    1200	     4.690
  66.120	        29	    1200	     5.385
  66.200	        23	    1200	     4.796
  66.280	        18	    1200	     4.243
  66.360	        28	    1200	     5.292
  66.440	        18	    1200	     4.243
  66.520	        26	    1200	     5.099
  66.600	        26	    1200	     5.099
  66.680	        26	    1200	     5.099
  66.760	        22	    1200	     4.690
  66.840	        35	    1200	     5.916
  66.920	        29	    1200	     5.385
  67.000	        39	    1200	     6.245
  67.080	        28	    1200	     5.292
  67.160	        25	    1200	     5.000
  67.240	        37	    1200	     6.083
  67.320	        54	    1200	     7.348
  67.400	        43	    1200	     6.557
  67.480	        57	    1200	     7.550
  67.560	        67	    1200	     8.185
  67.640	        69	    1200	     8.307
  67.720	        95	    1200	     9.747
  67.800	       137	    1200	    11.705
  67.880	       218	    1200	    14.765
  67.960	       356	    1200	    18.868
  68.040	       564	    1200	    23.749
  68.120	       599	    1200	    24.474
  68.200	       491	    1200	    22.159
  68.280	       505	    1200	    22.472
  68.360	       364	    1200	    19.079
  68.440	       210	    1200	    14.491
  68.520	       137	    1200	    11.705
  68.600	        96	    1200	     9.798
  68.680	        77	    1200	     8.775
  68.760	        50	    1200	     7.071
  68.840	        45	    1200	     6.708
  68.920	        40	    1200	     6.325
  69.000	        41	    1200	     6.403
  69.080	        39	    1200	     6.245
  69.160	        19	    1200	     4.359
  69.240	        38	    1200	     6.164
  69.320	        27	    1200	     5.196
  69.400	        33	    1200	     5.745
  69.480	        19	    1200	     4.359
  69.560	        25	    1200	     5.000
  69.640	        29	    1200	     5.385
  69.720	        19	    1200	     4.359
  69.800	        21	    1200	     4.583
  69.880	        26	    1200	     5.099
  69.960	        26	    1200	     5.099
  70.040	        24	    1200	     4.899
  70.120	        23	    1200	     4.796
  70.200	        24	    1200	     4.899
  70.280	        27	    1200	     5.196
  70.360	        25	    1200	     5.000
  70.440	        19	    1200	     4.359
  70.520	        22	    1200	     4.690
  70.600	        25	    1200	     5.000
  70.680	        26	    1200	     5.099
  70.760	        22	    1200	     4.690
  70.840	        21	    1200	     4.583
  70.920	        18	    1200	     4.243
  71.000	        25	    1200	     5.000
  71.080	        24	    1200	     4.899
  71.160	        23	    1200	     4.796
  71.240	        26	    1200	     5.099
  71.320	        28	    1200	     5.292
  71.400	        27	    1200	     5.196
  71.480	        22	    1200	     4.690
  71.560	        22	    1200	     4.690
  71.640	        28	    1200	     5.292
  71.720	        24	    1200	     4.899
  71.800	        19	    1200	     4.359
  71.880	        20	    1200	     4.472
  71.960	        25	    1200	     5.000
  72.040	        26	    1200	     5.099
  72.120	        27	    1200	     5.196
  72.200	        24	    1200	     4.899
  72.280	        24	    1200	     4.899
  72.360	        34	    1200	     5.831
  72.440	        24	    1200	     4.899
  72.520	        20	    1200	     4.472
  72.600	        23	    1200	     4.796
  72.680	        23	    1200	     4.796
  72.760	        38	    1200	     6.164
  72.840	        43	    1200	     6.557
  72.920	        51	    1200	     7.141
  73.000	        36	    1200	     6.000
  73.080	        48	    1200	     6.928
  73.160	        33	    1200	     5.745
  73.240	        31	    1200	     5.568
  73.320	        17	    1200	     4.123
  73.400	        30	    1200	     5.477
  73.480	        23	    1200	     4.796
  73.560	        22	    1200	     4.690
  73.640	        20	    1200	     4.472
  73.720	        15	    1200	     3.873
  73.800	        22	    1200	     4.690
  73.880	        21	    1200	     4.583
  73.960	        21	    1200	     4.583
  74.040	        17	    1200	     4.123
  74.120	        33	    1200	     5.745
  74.200	        15	    1200	     3.873
  74.280	        18	    1200	     4.243
  74.360	        12	    1200	     3.464
  74.440	        26	    1200	     5.099
  74.520	        22	    1200	     4.690
  74.600	        20	    1200	     4.472
  74.680	        18	    1200	     4.243
  74.760	        22	    1200	     4.690
  74.840	        24	    1200	     4.899
  74.920	        22	    1200	     4.690
  75.000	        32	    1200	     5.657
  75.080	        27	    1200	     5.196
  75.160	        26	    1200	     5.099
  75.240	        24	    1200	     4.899
  75.320	        25	    1200	     5.000
  75.400	        19	    1200	     4.359
  75.480	        21	    1200	     4.583
  75.560	        21	    1200	     4.583
  75.640	        20	    1200	     4.472
  75.720	        23	    1200	     4.796
  75.800	        24	    1200	     4.899
  75.880	        21	    1200	     4.583
  75.960	        24	    1200	     4.899
  76.040	        26	    1200	     5.099
  76.120	        30	    1200	     5.477
  76.200	        19	    1200	     4.359
  76.280	        22	    1200	     4.690
  76.360	        25	    1200	     5.000
  76.440	        23	    1200	     4.796
  76.520	        34	    1200	     5.831
  76.600	        21	    1200	     4.583
  76.680	        42	    1200	     6.481
  76.760	        34	    1200	     5.831
  76.840	        36	    1200	     6.000
  76.920	        56	    1200	     7.483
  77.000	        64	    1200	     8.000
  77.080	        70	    1200	     8.367
  77.160	        95	    1200	     9.747
  77.240	       120	    1200	    10.954
  77.320	       148	    1200	    12.166
  77.400	       238	    1200	    15.427
  77.480	       343	    1200	    18.520
  77.560	       341	    1200	    18.466
  77.640	       348	    1200	    18.655
  77.720	       343	    1200	    18.520
  77.800	       282	    1200	    16.793
  77.880	       204	    1200	    14.283
  77.960	       142	    1200	    11.916
  78.040	        94	    1200	     9.695
  78.120	        71	    1200	     8.426
  78.200	        48	    1200	     6.928
  78.280	        45	    1200	     6.708
  78.360	        35	    1200	     5.916
  78.440	        52	    1200	     7.211
  78.520	        28	    1200	     5.292
  78.600	        27	    1200	     5.196
  78.680	        22	    1200	     4.690
  78.760	        30	    1200	     5.477
  78.840	        28	    1200	     5.292
  78.920	        25	    1200	     5.000
  79.000	        22	    1200	     4.690
  79.080	        26	    1200	     5.099
  79.160	        31	    1200	     5.568
  79.240	        39	    1200	     6.245
  79.320	        19	    1200	     4.359
  79.400	        24	    1200	     4.899
  79.480	        12	    1200	     3.464
  79.560	        27	    1200	     5.196
  79.640	        22	    1200	     4.690
  79.720	        20	    1200	     4.472
  79.800	        33	    1200	     5.745
  79.880	        17	    1200	     4.123
  79.960	        16	    1200	     4.000
  80.040	        23	    1200	     4.796
  80.120	        20	    1200	     4.472
  80.200	        22	    1200	     4.690
  80.280	        16	    1200	     4.000
  80.360	        22	    1200	     4.690
  80.440	        21	    1200	     4.583
  80.520	        14	    1200	     3.742
  80.600	        19	    1200	     4.359
  80.680	        28	    1200	     5.292
  80.760	        27	    1200	     5.196
  80.840	        25	    1200	     5.000
  80.920	        19	    1200	     4.359
  81.000	        24	    1200	     4.899
  81.080	        28	    1200	     5.292
  81.160	        25	    1200	     5.000
  81.240	        26	    1200	     5.099
  81.320	        19	    1200	     4.359
  81.400	        34	    1200	     5.831
  81.480	        29	    1200	     5.385
  81.560	        30	    1200	     5.477
  81.640	        39	    1200	     6.245
  81.720	        44	    1200	     6.633
  81.800	        38	    1200	     6.164
  81.880	        41	    1200	     6.403
  81.960	        58	    1200	     7.616
  82.040	        93	    1200	     9.644
  82.120	       105	    1200	    10.247
  82.200	       107	    1200	    10.344
  82.280	        90	    1200	     9.487
  82.360	        82	    1200	     9.055
  82.440	        70	    1200	     8.367
  82.520	        50	    1200	     7.071
  82.600	        42	    1200	     6.481
  82.680	        40	    1200	     6.325
  82.760	        31	    1200	     5.568
  82.840	        35	    1200	     5.916
  82.920	        22	    1200	     4.690
  83.000	        23	    1200	     4.796
  83.080	        27	    1200	     5.196
  83.160	        24	    1200	     4.899
  83.240	        19	    1200	     4.359
  83.320	        20	    1200	     4.472
  83.400	        21	    1200	     4.583
  83.480	        25	    1200	     5.000
  83.560	        22	    1200	     4.690
  83.640	        18	    1200	     4.243
  83.720	        22	    1200	     4.690
  83.800	        18	    1200	     4.243
  83.880	        20	    1200	     4.472
  83.960	        20	    1200	     4.472
  84.040	        25	    1200	     5.000
  84.120	        18	    1200	     4.243
  84.200	        24	    1200	     4.899
  84.280	        23	    1200	     4.796
  84.360	        25	    1200	     5.000
  84.440	        21	    1200	     4.583
  84.520	        27	    1200	     5.196
  84.600	        22	    1200	     4.690
  84.680	        25	    1200	     5.000
  84.760	        20	    1200	     4.472
  84.840	        22	    1200	     4.690
  84.920	        29	    1200	     5.385
  85.000	        22	    1200	     4.690
  85.080	        10	    1200	     3.162
  85.160	        22	    1200	     4.690
  85.240	        26	    1200	     5.099
  85.320	        19	    1200	     4.359
  85.400	        21	    1200	     4.583
  85.480	        18	    1200	     4.243
  85.560	        35	    1200	     5.916
  85.640	        28	    1200	     5.292
  85.720	        26	    1200	     5.099
  85.800	        25	    1200	     5.000
  85.880	        27	    1200	     5.196
  85.960	        24	    1200	     4.899
  86.040	        46	    1200	     6.782
  86.120	        36	    1200	     6.000
  86.200	        41	    1200	     6.403
  86.280	        48	    1200	     6.928
  86.360	        57	    1200	     7.550
  86.440	        78	    1200	     8.832
  86.520	       111	    1200	    10.536
  86.600	       153	    1200	    12.369
  86.680	       171	    1200	    13.077
  86.760	       149	    1200	    12.207
  86.840	       138	    1200	    11.747
  86.920	       127	    1200	    11.269
  87.000	       105	    1200	    10.247
  87.080	        79	    1200	     8.888
  87.160	        61	    1200	     7.810
  87.240	        47	    1200	     6.856
  87.320	        30	    1200	     5.477
  87.400	        33	    1200	     5.745
  87.480	        25	    1200	     5.000
  87.560	        29	    1200	     5.385
  87.640	        18	    1200	     4.243
  87.720	        20	    1200	     4.472
  87.800	        17	    1200	     4.123
  87.880	        27	    1200	     5.196
  87.960	        18	    1200	     4.243
  88.040	        22	    1200	     4.690
  88.120	        25	    1200	     5.000
  88.200	        22	    1200	     4.690
  88.280	        31	    1200	     5.568
  88.360	        20	    1200	     4.472
  88.440	        21	    1200	     4.583
  88.520	        21	    1200	     4.583
  88.600	        19	    1200	     4.359
  88.680	        25	    1200	     5.000
  88.760	        19	    1200	     4.359
  88.840	        22	    1200	     4.690
  88.920	        20	    1200	     4.472
  89.000	        19	    1200	     4.359
  89.080	        19	    1200	     4.359
  89.160	        17	    1200	     4.123
  89.240	        20	    1200	     4.472
  89.320	        21	    1200	     4.583
  89.400	        13	    1200	     3.606
  89.480	        24	    1200	     4.899
  89.560	        21	    1200	     4.583
  89.640	        23	    1200	     4.796
  89.720	        18	    1200	     4.243
  89.800	        22	    1200	     4.690
  89.880	        17	    1200	     4.123
  89.960	        23	    1200	     4.796
  90.000	        28	    1200	     5.292