File: Ex Situ XRD/STF7 850C 91H2 4Hr.txt
         ID:

    Comment:

Scan Type: Normal
Start Angle: 15 deg.
Stop Angle: 90 deg.
Num Points: 3751
Step Size: 0.02 deg.
Datafile Res: 1600
Scan Rate: 1.000000
Scan Mode: Continuous
Wavelength: 1.540562

Diffractometer Optics:
		Detector:
			 Type: Fixed Slits
			 X2 Configuration: No
		Tube:
			 Type: Fixed Slits
			 X2 Configuration: No

Axis[0]
	 Selected   : no
	 Iterative  : no
	 Start Angle: 0.000000
	 Stop Angle : 0.000000
	 Step Size  : 0.000000
	 Oscillating: no

Axis[1]
	 Selected   : no
	 Iterative  : no
	 Start Angle: 0.000000
	 Stop Angle : 0.000000
	 Step Size  : 0.000000
	 Oscillating: no

Axis[2]
	 Selected   : no
	 Iterative  : no
	 Start Angle: 0.000000
	 Stop Angle : 0.000000
	 Step Size  : 0.000000
	 Oscillating: no

Axis[3]
	 Selected   : no
	 Iterative  : no
	 Start Angle: 0.000000
	 Stop Angle : 0.000000
	 Step Size  : 0.000000
	 Oscillating: no

Axis[4]
	 Selected   : no
	 Iterative  : no
	 Start Angle: 0.000000
	 Stop Angle : 0.000000
	 Step Size  : 0.000000
	 Oscillating: no

Axis[5]
	 Selected   : no
	 Iterative  : no
	 Start Angle: 0.000000
	 Stop Angle : 0.000000
	 Step Size  : 0.000000
	 Oscillating: no

Axis[6]
	 Selected   : no
	 Iterative  : no
	 Start Angle: 0.000000
	 Stop Angle : 0.000000
	 Step Size  : 0.000000
	 Oscillating: no

Axis[7]
	 Selected   : no
	 Iterative  : no
	 Start Angle: 0.000000
	 Stop Angle : 0.000000
	 Step Size  : 0.000000
	 Oscillating: no

Axis[8]
	 Selected   : no
	 Iterative  : no
	 Start Angle: 0.000000
	 Stop Angle : 0.000000
	 Step Size  : 0.000000
	 Oscillating: no

Axis[9]
	 Selected   : no
	 Iterative  : no
	 Start Angle: 0.000000
	 Stop Angle : 0.000000
	 Step Size  : 0.000000
	 Oscillating: no

	   Deg.    Counts 	   Time 	    ESD

Range 0
  15.000	       106	    1200	    10.296
  15.080	       104	    1200	    10.198
  15.160	       106	    1200	    10.296
  15.240	       115	    1200	    10.724
  15.320	        92	    1200	     9.592
  15.400	        98	    1200	     9.899
  15.480	       101	    1200	    10.050
  15.560	        87	    1200	     9.327
  15.640	       101	    1200	    10.050
  15.720	       102	    1200	    10.100
  15.800	       109	    1200	    10.440
  15.880	        96	    1200	     9.798
  15.960	       105	    1200	    10.247
  16.040	       104	    1200	    10.198
  16.120	       104	    1200	    10.198
  16.200	        88	    1200	     9.381
  16.280	       102	    1200	    10.100
  16.360	        91	    1200	     9.539
  16.440	       106	    1200	    10.296
  16.520	        86	    1200	     9.274
  16.600	        85	    1200	     9.220
  16.680	       108	    1200	    10.392
  16.760	        96	    1200	     9.798
  16.840	        95	    1200	     9.747
  16.920	       119	    1200	    10.909
  17.000	       106	    1200	    10.296
  17.080	        93	    1200	     9.644
  17.160	        74	    1200	     8.602
  17.240	        98	    1200	     9.899
  17.320	        92	    1200	     9.592
  17.400	       113	    1200	    10.630
  17.480	        95	    1200	     9.747
  17.560	        99	    1200	     9.950
  17.640	        97	    1200	     9.849
  17.720	        98	    1200	     9.899
  17.800	        88	    1200	     9.381
  17.880	        84	    1200	     9.165
  17.960	       110	    1200	    10.488
  18.040	       106	    1200	    10.296
  18.120	       111	    1200	    10.536
  18.200	        97	    1200	     9.849
  18.280	       117	    1200	    10.817
  18.360	       106	    1200	    10.296
  18.440	       103	    1200	    10.149
  18.520	        90	    1200	     9.487
  18.600	        96	    1200	     9.798
  18.680	       121	    1200	    11.000
  18.760	        96	    1200	     9.798
  18.840	       107	    1200	    10.344
  18.920	       101	    1200	    10.050
  19.000	        99	    1200	     9.950
  19.080	        91	    1200	     9.539
  19.160	        95	    1200	     9.747
  19.240	       104	    1200	    10.198
  19.320	       107	    1200	    10.344
  19.400	       103	    1200	    10.149
  19.480	        97	    1200	     9.849
  19.560	        96	    1200	     9.798
  19.640	        83	    1200	     9.110
  19.720	        86	    1200	     9.274
  19.800	        83	    1200	     9.110
  19.880	        96	    1200	     9.798
  19.960	        70	    1200	     8.367
  20.040	       104	    1200	    10.198
  20.120	        86	    1200	     9.274
  20.200	        89	    1200	     9.434
  20.280	        96	    1200	     9.798
  20.360	        97	    1200	     9.849
  20.440	       106	    1200	    10.296
  20.520	       103	    1200	    10.149
  20.600	        93	    1200	     9.644
  20.680	       106	    1200	    10.296
  20.760	        75	    1200	     8.660
  20.840	        95	    1200	     9.747
  20.920	        82	    1200	     9.055
  21.000	        99	    1200	     9.950
  21.080	        97	    1200	     9.849
  21.160	       105	    1200	    10.247
  21.240	        91	    1200	     9.539
  21.320	       108	    1200	    10.392
  21.400	       102	    1200	    10.100
  21.480	       110	    1200	    10.488
  21.560	        80	    1200	     8.944
  21.640	        90	    1200	     9.487
  21.720	        99	    1200	     9.950
  21.800	        96	    1200	     9.798
  21.880	        82	    1200	     9.055
  21.960	       114	    1200	    10.677
  22.040	       105	    1200	    10.247
  22.120	       101	    1200	    10.050
  22.200	        91	    1200	     9.539
  22.280	       109	    1200	    10.440
  22.360	       102	    1200	    10.100
  22.440	       118	    1200	    10.863
  22.520	       143	    1200	    11.958
  22.600	       121	    1200	    11.000
  22.680	        86	    1200	     9.274
  22.760	       101	    1200	    10.050
  22.840	        95	    1200	     9.747
  22.920	        94	    1200	     9.695
  23.000	        85	    1200	     9.220
  23.080	       108	    1200	    10.392
  23.160	        86	    1200	     9.274
  23.240	        73	    1200	     8.544
  23.320	       105	    1200	    10.247
  23.400	       106	    1200	    10.296
  23.480	        91	    1200	     9.539
  23.560	        81	    1200	     9.000
  23.640	        94	    1200	     9.695
  23.720	        88	    1200	     9.381
  23.800	       106	    1200	    10.296
  23.880	        95	    1200	     9.747
  23.960	        89	    1200	     9.434
  24.040	        85	    1200	     9.220
  24.120	        91	    1200	     9.539
  24.200	        89	    1200	     9.434
  24.280	        90	    1200	     9.487
  24.360	        85	    1200	     9.220
  24.440	        78	    1200	     8.832
  24.520	        80	    1200	     8.944
  24.600	        88	    1200	     9.381
  24.680	        74	    1200	     8.602
  24.760	        85	    1200	     9.220
  24.840	        82	    1200	     9.055
  24.920	        72	    1200	     8.485
  25.000	        77	    1200	     8.775
  25.080	        93	    1200	     9.644
  25.160	        86	    1200	     9.274
  25.240	        87	    1200	     9.327
  25.320	        87	    1200	     9.327
  25.400	        86	    1200	     9.274
  25.480	        92	    1200	     9.592
  25.560	        70	    1200	     8.367
  25.640	        74	    1200	     8.602
  25.720	        76	    1200	     8.718
  25.800	        74	    1200	     8.602
  25.880	        71	    1200	     8.426
  25.960	        77	    1200	     8.775
  26.040	        89	    1200	     9.434
  26.120	        67	    1200	     8.185
  26.200	        89	    1200	     9.434
  26.280	        59	    1200	     7.681
  26.360	        63	    1200	     7.937
  26.440	        87	    1200	     9.327
  26.520	        70	    1200	     8.367
  26.600	        62	    1200	     7.874
  26.680	        79	    1200	     8.888
  26.760	        81	    1200	     9.000
  26.840	        67	    1200	     8.185
  26.920	        71	    1200	     8.426
  27.000	        76	    1200	     8.718
  27.080	        71	    1200	     8.426
  27.160	        61	    1200	     7.810
  27.240	        78	    1200	     8.832
  27.320	        69	    1200	     8.307
  27.400	        78	    1200	     8.832
  27.480	        69	    1200	     8.307
  27.560	        71	    1200	     8.426
  27.640	        49	    1200	     7.000
  27.720	        60	    1200	     7.746
  27.800	        72	    1200	     8.485
  27.880	        52	    1200	     7.211
  27.960	        56	    1200	     7.483
  28.040	        56	    1200	     7.483
  28.120	        48	    1200	     6.928
  28.200	        63	    1200	     7.937
  28.280	        56	    1200	     7.483
  28.360	        58	    1200	     7.616
  28.440	        46	    1200	     6.782
  28.520	        64	    1200	     8.000
  28.600	        48	    1200	     6.928
  28.680	        41	    1200	     6.403
  28.760	        42	    1200	     6.481
  28.840	        58	    1200	     7.616
  28.920	        69	    1200	     8.307
  29.000	        50	    1200	     7.071
  29.080	        56	    1200	     7.483
  29.160	        54	    1200	     7.348
  29.240	        38	    1200	     6.164
  29.320	        44	    1200	     6.633
  29.400	        58	    1200	     7.616
  29.480	        59	    1200	     7.681
  29.560	        38	    1200	     6.164
  29.640	        53	    1200	     7.280
  29.720	        30	    1200	     5.477
  29.800	        48	    1200	     6.928
  29.880	        62	    1200	     7.874
  29.960	        47	    1200	     6.856
  30.040	        36	    1200	     6.000
  30.120	        47	    1200	     6.856
  30.200	        46	    1200	     6.782
  30.280	        46	    1200	     6.782
  30.360	        51	    1200	     7.141
  30.440	        46	    1200	     6.782
  30.520	        43	    1200	     6.557
  30.600	        37	    1200	     6.083
  30.680	        36	    1200	     6.000
  30.760	        36	    1200	     6.000
  30.840	        43	    1200	     6.557
  30.920	        39	    1200	     6.245
  31.000	        62	    1200	     7.874
  31.080	        50	    1200	     7.071
  31.160	        54	    1200	     7.348
  31.240	        59	    1200	     7.681
  31.320	        61	    1200	     7.810
  31.400	        92	    1200	     9.592
  31.480	        94	    1200	     9.695
  31.560	       113	    1200	    10.630
  31.640	        82	    1200	     9.055
  31.720	       121	    1200	    11.000
  31.800	       135	    1200	    11.619
  31.880	       255	    1200	    15.969
  31.960	       632	    1200	    25.140
  32.040	      1521	    1200	    39.000
  32.120	      2629	    1200	    51.274
  32.200	      2137	    1200	    46.228
  32.280	      1030	    1200	    32.094
  32.360	       381	    1200	    19.519
  32.440	       196	    1200	    14.000
  32.520	        99	    1200	     9.950
  32.600	        65	    1200	     8.062
  32.680	        65	    1200	     8.062
  32.760	        58	    1200	     7.616
  32.840	        54	    1200	     7.348
  32.920	        44	    1200	     6.633
  33.000	        52	    1200	     7.211
  33.080	        39	    1200	     6.245
  33.160	        48	    1200	     6.928
  33.240	        46	    1200	     6.782
  33.320	        46	    1200	     6.782
  33.400	        31	    1200	     5.568
  33.480	        29	    1200	     5.385
  33.560	        51	    1200	     7.141
  33.640	        34	    1200	     5.831
  33.720	        37	    1200	     6.083
  33.800	        48	    1200	     6.928
  33.880	        42	    1200	     6.481
  33.960	        41	    1200	     6.403
  34.040	        46	    1200	     6.782
  34.120	        29	    1200	     5.385
  34.200	        28	    1200	     5.292
  34.280	        34	    1200	     5.831
  34.360	        36	    1200	     6.000
  34.440	        39	    1200	     6.245
  34.520	        24	    1200	     4.899
  34.600	        25	    1200	     5.000
  34.680	        26	    1200	     5.099
  34.760	        25	    1200	     5.000
  34.840	        25	    1200	     5.000
  34.920	        26	    1200	     5.099
  35.000	        23	    1200	     4.796
  35.080	        29	    1200	     5.385
  35.160	        26	    1200	     5.099
  35.240	        18	    1200	     4.243
  35.320	        37	    1200	     6.083
  35.400	        21	    1200	     4.583
  35.480	        26	    1200	     5.099
  35.560	        18	    1200	     4.243
  35.640	        17	    1200	     4.123
  35.720	        30	    1200	     5.477
  35.800	        33	    1200	     5.745
  35.880	        18	    1200	     4.243
  35.960	        23	    1200	     4.796
  36.040	        18	    1200	     4.243
  36.120	        31	    1200	     5.568
  36.200	        29	    1200	     5.385
  36.280	        24	    1200	     4.899
  36.360	        27	    1200	     5.196
  36.440	        16	    1200	     4.000
  36.520	        26	    1200	     5.099
  36.600	        19	    1200	     4.359
  36.680	        30	    1200	     5.477
  36.760	        26	    1200	     5.099
  36.840	        25	    1200	     5.000
  36.920	        25	    1200	     5.000
  37.000	        28	    1200	     5.292
  37.080	        24	    1200	     4.899
  37.160	        33	    1200	     5.745
  37.240	        22	    1200	     4.690
  37.320	        24	    1200	     4.899
  37.400	        26	    1200	     5.099
  37.480	        15	    1200	     3.873
  37.560	        24	    1200	     4.899
  37.640	        24	    1200	     4.899
  37.720	        22	    1200	     4.690
  37.800	        23	    1200	     4.796
  37.880	        20	    1200	     4.472
  37.960	        25	    1200	     5.000
  38.040	        25	    1200	     5.000
  38.120	        25	    1200	     5.000
  38.200	        28	    1200	     5.292
  38.280	        30	    1200	     5.477
  38.360	        26	    1200	     5.099
  38.440	        11	    1200	     3.317
  38.520	        22	    1200	     4.690
  38.600	        24	    1200	     4.899
  38.680	        29	    1200	     5.385
  38.760	        34	    1200	     5.831
  38.840	        29	    1200	     5.385
  38.920	        23	    1200	     4.796
  39.000	        30	    1200	     5.477
  39.080	        31	    1200	     5.568
  39.160	        38	    1200	     6.164
  39.240	        36	    1200	     6.000
  39.320	        43	    1200	     6.557
  39.400	        46	    1200	     6.782
  39.480	        72	    1200	     8.485
  39.560	       148	    1200	    12.166
  39.640	       333	    1200	    18.248
  39.720	       397	    1200	    19.925
  39.800	       295	    1200	    17.176
  39.880	       142	    1200	    11.916
  39.960	        71	    1200	     8.426
  40.040	        46	    1200	     6.782
  40.120	        36	    1200	     6.000
  40.200	        32	    1200	     5.657
  40.280	        28	    1200	     5.292
  40.360	        22	    1200	     4.690
  40.440	        28	    1200	     5.292
  40.520	        27	    1200	     5.196
  40.600	        21	    1200	     4.583
  40.680	        25	    1200	     5.000
  40.760	        26	    1200	     5.099
  40.840	        27	    1200	     5.196
  40.920	        24	    1200	     4.899
  41.000	        28	    1200	     5.292
  41.080	        19	    1200	     4.359
  41.160	        39	    1200	     6.245
  41.240	        43	    1200	     6.557
  41.320	        30	    1200	     5.477
  41.400	        40	    1200	     6.325
  41.480	        28	    1200	     5.292
  41.560	        22	    1200	     4.690
  41.640	        31	    1200	     5.568
  41.720	        31	    1200	     5.568
  41.800	        23	    1200	     4.796
  41.880	        12	    1200	     3.464
  41.960	        17	    1200	     4.123
  42.040	        19	    1200	     4.359
  42.120	        13	    1200	     3.606
  42.200	        22	    1200	     4.690
  42.280	        20	    1200	     4.472
  42.360	        19	    1200	     4.359
  42.440	        21	    1200	     4.583
  42.520	        21	    1200	     4.583
  42.600	        28	    1200	     5.292
  42.680	        28	    1200	     5.292
  42.760	        17	    1200	     4.123
  42.840	        18	    1200	     4.243
  42.920	        25	    1200	     5.000
  43.000	        12	    1200	     3.464
  43.080	        17	    1200	     4.123
  43.160	        16	    1200	     4.000
  43.240	        12	    1200	     3.464
  43.320	        16	    1200	     4.000
  43.400	        11	    1200	     3.317
  43.480	        20	    1200	     4.472
  43.560	        15	    1200	     3.873
  43.640	        20	    1200	     4.472
  43.720	        21	    1200	     4.583
  43.800	        15	    1200	     3.873
  43.880	        19	    1200	     4.359
  43.960	        17	    1200	     4.123
  44.040	        12	    1200	     3.464
  44.120	        24	    1200	     4.899
  44.200	        22	    1200	     4.690
  44.280	        23	    1200	     4.796
  44.360	        27	    1200	     5.196
  44.440	        18	    1200	     4.243
  44.520	        25	    1200	     5.000
  44.600	        30	    1200	     5.477
  44.680	        25	    1200	     5.000
  44.760	        28	    1200	     5.292
  44.840	        21	    1200	     4.583
  44.920	        11	    1200	     3.317
  45.000	        18	    1200	     4.243
  45.080	        20	    1200	     4.472
  45.160	        19	    1200	     4.359
  45.240	        26	    1200	     5.099
  45.320	        29	    1200	     5.385
  45.400	        19	    1200	     4.359
  45.480	        22	    1200	     4.690
  45.560	        28	    1200	     5.292
  45.640	        41	    1200	     6.403
  45.720	        66	    1200	     8.124
  45.800	        95	    1200	     9.747
  45.880	       124	    1200	    11.136
  45.960	       211	    1200	    14.526
  46.040	       388	    1200	    19.698
  46.120	       745	    1200	    27.295
  46.200	       977	    1200	    31.257
  46.280	       832	    1200	    28.844
  46.360	       464	    1200	    21.541
  46.440	       228	    1200	    15.100
  46.520	       120	    1200	    10.954
  46.600	        76	    1200	     8.718
  46.680	        41	    1200	     6.403
  46.760	        36	    1200	     6.000
  46.840	        29	    1200	     5.385
  46.920	        32	    1200	     5.657
  47.000	        30	    1200	     5.477
  47.080	        36	    1200	     6.000
  47.160	        28	    1200	     5.292
  47.240	        22	    1200	     4.690
  47.320	        28	    1200	     5.292
  47.400	        21	    1200	     4.583
  47.480	        24	    1200	     4.899
  47.560	        28	    1200	     5.292
  47.640	        23	    1200	     4.796
  47.720	        32	    1200	     5.657
  47.800	        31	    1200	     5.568
  47.880	        13	    1200	     3.606
  47.960	        18	    1200	     4.243
  48.040	        25	    1200	     5.000
  48.120	        27	    1200	     5.196
  48.200	        19	    1200	     4.359
  48.280	        16	    1200	     4.000
  48.360	        19	    1200	     4.359
  48.440	        14	    1200	     3.742
  48.520	        16	    1200	     4.000
  48.600	        15	    1200	     3.873
  48.680	        13	    1200	     3.606
  48.760	        17	    1200	     4.123
  48.840	        23	    1200	     4.796
  48.920	        25	    1200	     5.000
  49.000	        30	    1200	     5.477
  49.080	        15	    1200	     3.873
  49.160	        16	    1200	     4.000
  49.240	        16	    1200	     4.000
  49.320	        17	    1200	     4.123
  49.400	        20	    1200	     4.472
  49.480	        14	    1200	     3.742
  49.560	         9	    1200	     3.000
  49.640	        15	    1200	     3.873
  49.720	        19	    1200	     4.359
  49.800	        12	    1200	     3.464
  49.880	        10	    1200	     3.162
  49.960	        16	    1200	     4.000
  50.040	        20	    1200	     4.472
  50.120	        17	    1200	     4.123
  50.200	        16	    1200	     4.000
  50.280	        16	    1200	     4.000
  50.360	        12	    1200	     3.464
  50.440	        13	    1200	     3.606
  50.520	        12	    1200	     3.464
  50.600	        17	    1200	     4.123
  50.680	        19	    1200	     4.359
  50.760	        14	    1200	     3.742
  50.840	        11	    1200	     3.317
  50.920	        19	    1200	     4.359
  51.000	        14	    1200	     3.742
  51.080	        10	    1200	     3.162
  51.160	        16	    1200	     4.000
  51.240	        14	    1200	     3.742
  51.320	        15	    1200	     3.873
  51.400	        16	    1200	     4.000
  51.480	        15	    1200	     3.873
  51.560	        18	    1200	     4.243
  51.640	        20	    1200	     4.472
  51.720	        19	    1200	     4.359
  51.800	        18	    1200	     4.243
  51.880	        28	    1200	     5.292
  51.960	        41	    1200	     6.403
  52.040	        48	    1200	     6.928
  52.120	        47	    1200	     6.856
  52.200	        44	    1200	     6.633
  52.280	        34	    1200	     5.831
  52.360	        15	    1200	     3.873
  52.440	        11	    1200	     3.317
  52.520	        13	    1200	     3.606
  52.600	        18	    1200	     4.243
  52.680	        13	    1200	     3.606
  52.760	        19	    1200	     4.359
  52.840	        10	    1200	     3.162
  52.920	        19	    1200	     4.359
  53.000	        18	    1200	     4.243
  53.080	        15	    1200	     3.873
  53.160	        16	    1200	     4.000
  53.240	        11	    1200	     3.317
  53.320	        17	    1200	     4.123
  53.400	        18	    1200	     4.243
  53.480	        20	    1200	     4.472
  53.560	        12	    1200	     3.464
  53.640	        13	    1200	     3.606
  53.720	        12	    1200	     3.464
  53.800	        14	    1200	     3.742
  53.880	        10	    1200	     3.162
  53.960	        19	    1200	     4.359
  54.040	        11	    1200	     3.317
  54.120	        22	    1200	     4.690
  54.200	        18	    1200	     4.243
  54.280	        11	    1200	     3.317
  54.360	        17	    1200	     4.123
  54.440	         8	    1200	     2.828
  54.520	        14	    1200	     3.742
  54.600	        22	    1200	     4.690
  54.680	        21	    1200	     4.583
  54.760	        16	    1200	     4.000
  54.840	        10	    1200	     3.162
  54.920	        15	    1200	     3.873
  55.000	        12	    1200	     3.464
  55.080	        17	    1200	     4.123
  55.160	         7	    1200	     2.646
  55.240	        15	    1200	     3.873
  55.320	        18	    1200	     4.243
  55.400	        25	    1200	     5.000
  55.480	        28	    1200	     5.292
  55.560	        15	    1200	     3.873
  55.640	        21	    1200	     4.583
  55.720	        14	    1200	     3.742
  55.800	        22	    1200	     4.690
  55.880	        19	    1200	     4.359
  55.960	        15	    1200	     3.873
  56.040	        19	    1200	     4.359
  56.120	        16	    1200	     4.000
  56.200	        21	    1200	     4.583
  56.280	        23	    1200	     4.796
  56.360	        25	    1200	     5.000
  56.440	        30	    1200	     5.477
  56.520	        32	    1200	     5.657
  56.600	        42	    1200	     6.481
  56.680	        32	    1200	     5.657
  56.760	        42	    1200	     6.481
  56.840	        52	    1200	     7.211
  56.920	        51	    1200	     7.141
  57.000	        48	    1200	     6.928
  57.080	        94	    1200	     9.695
  57.160	       108	    1200	    10.392
  57.240	       185	    1200	    13.601
  57.320	       364	    1200	    19.079
  57.400	       677	    1200	    26.019
  57.480	      1012	    1200	    31.812
  57.560	       872	    1200	    29.530
  57.640	       693	    1200	    26.325
  57.720	       403	    1200	    20.075
  57.800	       176	    1200	    13.266
  57.880	       105	    1200	    10.247
  57.960	        77	    1200	     8.775
  58.040	        49	    1200	     7.000
  58.120	        24	    1200	     4.899
  58.200	        29	    1200	     5.385
  58.280	        21	    1200	     4.583
  58.360	        30	    1200	     5.477
  58.440	        29	    1200	     5.385
  58.520	        25	    1200	     5.000
  58.600	        34	    1200	     5.831
  58.680	        25	    1200	     5.000
  58.760	        28	    1200	     5.292
  58.840	        18	    1200	     4.243
  58.920	        24	    1200	     4.899
  59.000	        32	    1200	     5.657
  59.080	        19	    1200	     4.359
  59.160	        20	    1200	     4.472
  59.240	        21	    1200	     4.583
  59.320	        19	    1200	     4.359
  59.400	        19	    1200	     4.359
  59.480	        23	    1200	     4.796
  59.560	        23	    1200	     4.796
  59.640	        14	    1200	     3.742
  59.720	        14	    1200	     3.742
  59.800	        19	    1200	     4.359
  59.880	        23	    1200	     4.796
  59.960	        17	    1200	     4.123
  60.040	        23	    1200	     4.796
  60.120	        24	    1200	     4.899
  60.200	        21	    1200	     4.583
  60.280	        16	    1200	     4.000
  60.360	        15	    1200	     3.873
  60.440	        18	    1200	     4.243
  60.520	        19	    1200	     4.359
  60.600	        12	    1200	     3.464
  60.680	        13	    1200	     3.606
  60.760	        22	    1200	     4.690
  60.840	        20	    1200	     4.472
  60.920	        22	    1200	     4.690
  61.000	        22	    1200	     4.690
  61.080	        18	    1200	     4.243
  61.160	        20	    1200	     4.472
  61.240	        21	    1200	     4.583
  61.320	        21	    1200	     4.583
  61.400	        23	    1200	     4.796
  61.480	        15	    1200	     3.873
  61.560	        20	    1200	     4.472
  61.640	        14	    1200	     3.742
  61.720	        19	    1200	     4.359
  61.800	        15	    1200	     3.873
  61.880	        22	    1200	     4.690
  61.960	        17	    1200	     4.123
  62.040	        15	    1200	     3.873
  62.120	        16	    1200	     4.000
  62.200	        26	    1200	     5.099
  62.280	        25	    1200	     5.000
  62.360	        25	    1200	     5.000
  62.440	        19	    1200	     4.359
  62.520	        12	    1200	     3.464
  62.600	        14	    1200	     3.742
  62.680	        24	    1200	     4.899
  62.760	        13	    1200	     3.606
  62.840	        25	    1200	     5.000
  62.920	        25	    1200	     5.000
  63.000	        27	    1200	     5.196
  63.080	        22	    1200	     4.690
  63.160	        23	    1200	     4.796
  63.240	        22	    1200	     4.690
  63.320	        20	    1200	     4.472
  63.400	        22	    1200	     4.690
  63.480	        19	    1200	     4.359
  63.560	        24	    1200	     4.899
  63.640	        32	    1200	     5.657
  63.720	        29	    1200	     5.385
  63.800	        35	    1200	     5.916
  63.880	        19	    1200	     4.359
  63.960	        25	    1200	     5.000
  64.040	        20	    1200	     4.472
  64.120	        21	    1200	     4.583
  64.200	        16	    1200	     4.000
  64.280	        17	    1200	     4.123
  64.360	        17	    1200	     4.123
  64.440	        28	    1200	     5.292
  64.520	        25	    1200	     5.000
  64.600	         9	    1200	     3.000
  64.680	        19	    1200	     4.359
  64.760	        26	    1200	     5.099
  64.840	        13	    1200	     3.606
  64.920	        24	    1200	     4.899
  65.000	        13	    1200	     3.606
  65.080	        15	    1200	     3.873
  65.160	        21	    1200	     4.583
  65.240	        17	    1200	     4.123
  65.320	        14	    1200	     3.742
  65.400	        25	    1200	     5.000
  65.480	        18	    1200	     4.243
  65.560	        23	    1200	     4.796
  65.640	        22	    1200	     4.690
  65.720	        15	    1200	     3.873
  65.800	        24	    1200	     4.899
  65.880	        21	    1200	     4.583
  65.960	        25	    1200	     5.000
  66.040	        19	    1200	     4.359
  66.120	        17	    1200	     4.123
  66.200	        21	    1200	     4.583
  66.280	        22	    1200	     4.690
  66.360	        16	    1200	     4.000
  66.440	        25	    1200	     5.000
  66.520	        19	    1200	     4.359
  66.600	        21	    1200	     4.583
  66.680	        25	    1200	     5.000
  66.760	        20	    1200	     4.472
  66.840	        30	    1200	     5.477
  66.920	        36	    1200	     6.000
  67.000	        47	    1200	     6.856
  67.080	        66	    1200	     8.124
  67.160	        78	    1200	     8.832
  67.240	        88	    1200	     9.381
  67.320	       148	    1200	    12.166
  67.400	       291	    1200	    17.059
  67.480	       448	    1200	    21.166
  67.560	       444	    1200	    21.071
  67.640	       330	    1200	    18.166
  67.720	       290	    1200	    17.029
  67.800	       172	    1200	    13.115
  67.880	        97	    1200	     9.849
  67.960	        75	    1200	     8.660
  68.040	        56	    1200	     7.483
  68.120	        35	    1200	     5.916
  68.200	        24	    1200	     4.899
  68.280	        36	    1200	     6.000
  68.360	        30	    1200	     5.477
  68.440	        22	    1200	     4.690
  68.520	        25	    1200	     5.000
  68.600	        18	    1200	     4.243
  68.680	        25	    1200	     5.000
  68.760	        24	    1200	     4.899
  68.840	        21	    1200	     4.583
  68.920	        15	    1200	     3.873
  69.000	        14	    1200	     3.742
  69.080	        18	    1200	     4.243
  69.160	        23	    1200	     4.796
  69.240	        14	    1200	     3.742
  69.320	        15	    1200	     3.873
  69.400	        21	    1200	     4.583
  69.480	        15	    1200	     3.873
  69.560	        15	    1200	     3.873
  69.640	        17	    1200	     4.123
  69.720	        13	    1200	     3.606
  69.800	        15	    1200	     3.873
  69.880	        18	    1200	     4.243
  69.960	        13	    1200	     3.606
  70.040	        14	    1200	     3.742
  70.120	        13	    1200	     3.606
  70.200	        22	    1200	     4.690
  70.280	        18	    1200	     4.243
  70.360	        16	    1200	     4.000
  70.440	        12	    1200	     3.464
  70.520	        13	    1200	     3.606
  70.600	        13	    1200	     3.606
  70.680	         7	    1200	     2.646
  70.760	        18	    1200	     4.243
  70.840	        17	    1200	     4.123
  70.920	        21	    1200	     4.583
  71.000	        21	    1200	     4.583
  71.080	        13	    1200	     3.606
  71.160	        14	    1200	     3.742
  71.240	        15	    1200	     3.873
  71.320	        17	    1200	     4.123
  71.400	        15	    1200	     3.873
  71.480	        18	    1200	     4.243
  71.560	        26	    1200	     5.099
  71.640	        16	    1200	     4.000
  71.720	        13	    1200	     3.606
  71.800	        12	    1200	     3.464
  71.880	        13	    1200	     3.606
  71.960	        15	    1200	     3.873
  72.040	        18	    1200	     4.243
  72.120	        27	    1200	     5.196
  72.200	        27	    1200	     5.196
  72.280	        34	    1200	     5.831
  72.360	        33	    1200	     5.745
  72.440	        38	    1200	     6.164
  72.520	        31	    1200	     5.568
  72.600	        13	    1200	     3.606
  72.680	        28	    1200	     5.292
  72.760	        24	    1200	     4.899
  72.840	        16	    1200	     4.000
  72.920	        19	    1200	     4.359
  73.000	        24	    1200	     4.899
  73.080	        17	    1200	     4.123
  73.160	        15	    1200	     3.873
  73.240	        16	    1200	     4.000
  73.320	        11	    1200	     3.317
  73.400	        13	    1200	     3.606
  73.480	         8	    1200	     2.828
  73.560	        11	    1200	     3.317
  73.640	        14	    1200	     3.742
  73.720	        13	    1200	     3.606
  73.800	        16	    1200	     4.000
  73.880	        15	    1200	     3.873
  73.960	        12	    1200	     3.464
  74.040	        16	    1200	     4.000
  74.120	        21	    1200	     4.583
  74.200	        16	    1200	     4.000
  74.280	        20	    1200	     4.472
  74.360	         6	    1200	     2.449
  74.440	        26	    1200	     5.099
  74.520	        18	    1200	     4.243
  74.600	        17	    1200	     4.123
  74.680	        12	    1200	     3.464
  74.760	        12	    1200	     3.464
  74.840	        18	    1200	     4.243
  74.920	        13	    1200	     3.606
  75.000	        12	    1200	     3.464
  75.080	        16	    1200	     4.000
  75.160	        19	    1200	     4.359
  75.240	        21	    1200	     4.583
  75.320	        23	    1200	     4.796
  75.400	        16	    1200	     4.000
  75.480	        20	    1200	     4.472
  75.560	        13	    1200	     3.606
  75.640	        18	    1200	     4.243
  75.720	         8	    1200	     2.828
  75.800	        25	    1200	     5.000
  75.880	        21	    1200	     4.583
  75.960	        22	    1200	     4.690
  76.040	        20	    1200	     4.472
  76.120	        22	    1200	     4.690
  76.200	        39	    1200	     6.245
  76.280	        35	    1200	     5.916
  76.360	        44	    1200	     6.633
  76.440	        47	    1200	     6.856
  76.520	        64	    1200	     8.000
  76.600	        98	    1200	     9.899
  76.680	       129	    1200	    11.358
  76.760	       226	    1200	    15.033
  76.840	       298	    1200	    17.263
  76.920	       271	    1200	    16.462
  77.000	       200	    1200	    14.142
  77.080	       205	    1200	    14.318
  77.160	       164	    1200	    12.806
  77.240	        88	    1200	     9.381
  77.320	        68	    1200	     8.246
  77.400	        57	    1200	     7.550
  77.480	        30	    1200	     5.477
  77.560	        31	    1200	     5.568
  77.640	        30	    1200	     5.477
  77.720	        23	    1200	     4.796
  77.800	        25	    1200	     5.000
  77.880	        23	    1200	     4.796
  77.960	        21	    1200	     4.583
  78.040	        17	    1200	     4.123
  78.120	        19	    1200	     4.359
  78.200	        19	    1200	     4.359
  78.280	        16	    1200	     4.000
  78.360	        17	    1200	     4.123
  78.440	        19	    1200	     4.359
  78.520	        11	    1200	     3.317
  78.600	        18	    1200	     4.243
  78.680	        10	    1200	     3.162
  78.760	        19	    1200	     4.359
  78.840	        11	    1200	     3.317
  78.920	        14	    1200	     3.742
  79.000	        15	    1200	     3.873
  79.080	        20	    1200	     4.472
  79.160	        21	    1200	     4.583
  79.240	        19	    1200	     4.359
  79.320	        15	    1200	     3.873
  79.400	        14	    1200	     3.742
  79.480	        14	    1200	     3.742
  79.560	        19	    1200	     4.359
  79.640	        18	    1200	     4.243
  79.720	        13	    1200	     3.606
  79.800	        17	    1200	     4.123
  79.880	        19	    1200	     4.359
  79.960	        19	    1200	     4.359
  80.040	        22	    1200	     4.690
  80.120	        16	    1200	     4.000
  80.200	        25	    1200	     5.000
  80.280	        18	    1200	     4.243
  80.360	        25	    1200	     5.000
  80.440	        17	    1200	     4.123
  80.520	        18	    1200	     4.243
  80.600	        15	    1200	     3.873
  80.680	        17	    1200	     4.123
  80.760	        18	    1200	     4.243
  80.840	        21	    1200	     4.583
  80.920	        22	    1200	     4.690
  81.000	        26	    1200	     5.099
  81.080	        23	    1200	     4.796
  81.160	        34	    1200	     5.831
  81.240	        62	    1200	     7.874
  81.320	        81	    1200	     9.000
  81.400	        60	    1200	     7.746
  81.480	        59	    1200	     7.681
  81.560	        72	    1200	     8.485
  81.640	        51	    1200	     7.141
  81.720	        48	    1200	     6.928
  81.800	        32	    1200	     5.657
  81.880	        16	    1200	     4.000
  81.960	        32	    1200	     5.657
  82.040	        20	    1200	     4.472
  82.120	        25	    1200	     5.000
  82.200	        23	    1200	     4.796
  82.280	        21	    1200	     4.583
  82.360	        27	    1200	     5.196
  82.440	        25	    1200	     5.000
  82.520	        19	    1200	     4.359
  82.600	        28	    1200	     5.292
  82.680	        20	    1200	     4.472
  82.760	        22	    1200	     4.690
  82.840	        27	    1200	     5.196
  82.920	        14	    1200	     3.742
  83.000	        15	    1200	     3.873
  83.080	        17	    1200	     4.123
  83.160	        21	    1200	     4.583
  83.240	        11	    1200	     3.317
  83.320	        20	    1200	     4.472
  83.400	        24	    1200	     4.899
  83.480	        14	    1200	     3.742
  83.560	        21	    1200	     4.583
  83.640	        14	    1200	     3.742
  83.720	        20	    1200	     4.472
  83.800	        12	    1200	     3.464
  83.880	        20	    1200	     4.472
  83.960	        17	    1200	     4.123
  84.040	        18	    1200	     4.243
  84.120	        17	    1200	     4.123
  84.200	        16	    1200	     4.000
  84.280	        22	    1200	     4.690
  84.360	        14	    1200	     3.742
  84.440	        15	    1200	     3.873
  84.520	        23	    1200	     4.796
  84.600	        22	    1200	     4.690
  84.680	        14	    1200	     3.742
  84.760	        12	    1200	     3.464
  84.840	        19	    1200	     4.359
  84.920	        22	    1200	     4.690
  85.000	        26	    1200	     5.099
  85.080	        18	    1200	     4.243
  85.160	        20	    1200	     4.472
  85.240	        24	    1200	     4.899
  85.320	        15	    1200	     3.873
  85.400	        22	    1200	     4.690
  85.480	        32	    1200	     5.657
  85.560	        36	    1200	     6.000
  85.640	        42	    1200	     6.481
  85.720	        67	    1200	     8.185
  85.800	       107	    1200	    10.344
  85.880	       142	    1200	    11.916
  85.960	       119	    1200	    10.909
  86.040	       101	    1200	    10.050
  86.120	        84	    1200	     9.165
  86.200	        71	    1200	     8.426
  86.280	        43	    1200	     6.557
  86.360	        34	    1200	     5.831
  86.440	        33	    1200	     5.745
  86.520	        25	    1200	     5.000
  86.600	        32	    1200	     5.657
  86.680	        17	    1200	     4.123
  86.760	        17	    1200	     4.123
  86.840	        13	    1200	     3.606
  86.920	        20	    1200	     4.472
  87.000	        18	    1200	     4.243
  87.080	        15	    1200	     3.873
  87.160	        14	    1200	     3.742
  87.240	        15	    1200	     3.873
  87.320	        16	    1200	     4.000
  87.400	        24	    1200	     4.899
  87.480	        17	    1200	     4.123
  87.560	        16	    1200	     4.000
  87.640	        19	    1200	     4.359
  87.720	        26	    1200	     5.099
  87.800	        18	    1200	     4.243
  87.880	        17	    1200	     4.123
  87.960	        15	    1200	     3.873
  88.040	        18	    1200	     4.243
  88.120	        12	    1200	     3.464
  88.200	        16	    1200	     4.000
  88.280	        14	    1200	     3.742
  88.360	        22	    1200	     4.690
  88.440	        10	    1200	     3.162
  88.520	        12	    1200	     3.464
  88.600	        17	    1200	     4.123
  88.680	        22	    1200	     4.690
  88.760	        17	    1200	     4.123
  88.840	        22	    1200	     4.690
  88.920	         5	    1200	     2.236
  89.000	        14	    1200	     3.742
  89.080	        13	    1200	     3.606
  89.160	        10	    1200	     3.162
  89.240	        11	    1200	     3.317
  89.320	        20	    1200	     4.472
  89.400	        12	    1200	     3.464
  89.480	        18	    1200	     4.243
  89.560	        14	    1200	     3.742
  89.640	        25	    1200	     5.000
  89.720	        19	    1200	     4.359
  89.800	        21	    1200	     4.583
  89.880	        17	    1200	     4.123
  89.960	        14	    1200	     3.742
  90.000	        12	    1200	     3.464