File: Ex Situ XRD/STF8 Pristine.txt
         ID:

    Comment:

Scan Type: Normal
Start Angle: 15 deg.
Stop Angle: 90 deg.
Num Points: 3751
Step Size: 0.02 deg.
Datafile Res: 1600
Scan Rate: 1.000000
Scan Mode: Continuous
Wavelength: 1.540562

Diffractometer Optics:
		Detector:
			 Type: Fixed Slits
			 X2 Configuration: No
		Tube:
			 Type: Fixed Slits
			 X2 Configuration: No

Axis[0]
	 Selected   : no
	 Iterative  : no
	 Start Angle: 0.000000
	 Stop Angle : 0.000000
	 Step Size  : 0.000000
	 Oscillating: no

Axis[1]
	 Selected   : no
	 Iterative  : no
	 Start Angle: 0.000000
	 Stop Angle : 0.000000
	 Step Size  : 0.000000
	 Oscillating: no

Axis[2]
	 Selected   : no
	 Iterative  : no
	 Start Angle: 0.000000
	 Stop Angle : 0.000000
	 Step Size  : 0.000000
	 Oscillating: no

Axis[3]
	 Selected   : no
	 Iterative  : no
	 Start Angle: 0.000000
	 Stop Angle : 0.000000
	 Step Size  : 0.000000
	 Oscillating: no

Axis[4]
	 Selected   : no
	 Iterative  : no
	 Start Angle: 0.000000
	 Stop Angle : 0.000000
	 Step Size  : 0.000000
	 Oscillating: no

Axis[5]
	 Selected   : no
	 Iterative  : no
	 Start Angle: 0.000000
	 Stop Angle : 0.000000
	 Step Size  : 0.000000
	 Oscillating: no

Axis[6]
	 Selected   : no
	 Iterative  : no
	 Start Angle: 0.000000
	 Stop Angle : 0.000000
	 Step Size  : 0.000000
	 Oscillating: no

Axis[7]
	 Selected   : no
	 Iterative  : no
	 Start Angle: 0.000000
	 Stop Angle : 0.000000
	 Step Size  : 0.000000
	 Oscillating: no

Axis[8]
	 Selected   : no
	 Iterative  : no
	 Start Angle: 0.000000
	 Stop Angle : 0.000000
	 Step Size  : 0.000000
	 Oscillating: no

Axis[9]
	 Selected   : no
	 Iterative  : no
	 Start Angle: 0.000000
	 Stop Angle : 0.000000
	 Step Size  : 0.000000
	 Oscillating: no

	   Deg.    Counts 	   Time 	    ESD

Range 0
  15.000	        96	    1200	     9.798
  15.080	       126	    1200	    11.225
  15.160	        96	    1200	     9.798
  15.240	       117	    1200	    10.817
  15.320	       109	    1200	    10.440
  15.400	       104	    1200	    10.198
  15.480	       117	    1200	    10.817
  15.560	       103	    1200	    10.149
  15.640	       104	    1200	    10.198
  15.720	        98	    1200	     9.899
  15.800	       100	    1200	    10.000
  15.880	       104	    1200	    10.198
  15.960	       110	    1200	    10.488
  16.040	        94	    1200	     9.695
  16.120	       111	    1200	    10.536
  16.200	       108	    1200	    10.392
  16.280	        92	    1200	     9.592
  16.360	        93	    1200	     9.644
  16.440	       119	    1200	    10.909
  16.520	        93	    1200	     9.644
  16.600	       119	    1200	    10.909
  16.680	        84	    1200	     9.165
  16.760	       104	    1200	    10.198
  16.840	        79	    1200	     8.888
  16.920	        96	    1200	     9.798
  17.000	        95	    1200	     9.747
  17.080	        98	    1200	     9.899
  17.160	        98	    1200	     9.899
  17.240	        99	    1200	     9.950
  17.320	        94	    1200	     9.695
  17.400	       114	    1200	    10.677
  17.480	        99	    1200	     9.950
  17.560	       104	    1200	    10.198
  17.640	       110	    1200	    10.488
  17.720	        87	    1200	     9.327
  17.800	       123	    1200	    11.091
  17.880	       100	    1200	    10.000
  17.960	        73	    1200	     8.544
  18.040	        88	    1200	     9.381
  18.120	       108	    1200	    10.392
  18.200	        95	    1200	     9.747
  18.280	       104	    1200	    10.198
  18.360	        83	    1200	     9.110
  18.440	       109	    1200	    10.440
  18.520	       113	    1200	    10.630
  18.600	       102	    1200	    10.100
  18.680	        95	    1200	     9.747
  18.760	       110	    1200	    10.488
  18.840	       104	    1200	    10.198
  18.920	        94	    1200	     9.695
  19.000	        93	    1200	     9.644
  19.080	       103	    1200	    10.149
  19.160	        93	    1200	     9.644
  19.240	       102	    1200	    10.100
  19.320	       108	    1200	    10.392
  19.400	        97	    1200	     9.849
  19.480	       109	    1200	    10.440
  19.560	        94	    1200	     9.695
  19.640	       104	    1200	    10.198
  19.720	        97	    1200	     9.849
  19.800	        97	    1200	     9.849
  19.880	       111	    1200	    10.536
  19.960	        93	    1200	     9.644
  20.040	        93	    1200	     9.644
  20.120	       105	    1200	    10.247
  20.200	       122	    1200	    11.045
  20.280	       109	    1200	    10.440
  20.360	        94	    1200	     9.695
  20.440	       106	    1200	    10.296
  20.520	       109	    1200	    10.440
  20.600	        93	    1200	     9.644
  20.680	       120	    1200	    10.954
  20.760	        96	    1200	     9.798
  20.840	        94	    1200	     9.695
  20.920	        94	    1200	     9.695
  21.000	       107	    1200	    10.344
  21.080	       120	    1200	    10.954
  21.160	        86	    1200	     9.274
  21.240	       102	    1200	    10.100
  21.320	        97	    1200	     9.849
  21.400	       114	    1200	    10.677
  21.480	        97	    1200	     9.849
  21.560	       100	    1200	    10.000
  21.640	        71	    1200	     8.426
  21.720	       105	    1200	    10.247
  21.800	       109	    1200	    10.440
  21.880	        95	    1200	     9.747
  21.960	        95	    1200	     9.747
  22.040	        97	    1200	     9.849
  22.120	        86	    1200	     9.274
  22.200	       107	    1200	    10.344
  22.280	        90	    1200	     9.487
  22.360	        91	    1200	     9.539
  22.440	        97	    1200	     9.849
  22.520	       109	    1200	    10.440
  22.600	        92	    1200	     9.592
  22.680	       130	    1200	    11.402
  22.760	       125	    1200	    11.180
  22.840	       118	    1200	    10.863
  22.920	       106	    1200	    10.296
  23.000	        83	    1200	     9.110
  23.080	        85	    1200	     9.220
  23.160	        95	    1200	     9.747
  23.240	        71	    1200	     8.426
  23.320	        99	    1200	     9.950
  23.400	        82	    1200	     9.055
  23.480	        85	    1200	     9.220
  23.560	        87	    1200	     9.327
  23.640	        81	    1200	     9.000
  23.720	        86	    1200	     9.274
  23.800	        88	    1200	     9.381
  23.880	        90	    1200	     9.487
  23.960	       101	    1200	    10.050
  24.040	       103	    1200	    10.149
  24.120	        98	    1200	     9.899
  24.200	        90	    1200	     9.487
  24.280	        89	    1200	     9.434
  24.360	        88	    1200	     9.381
  24.440	       117	    1200	    10.817
  24.520	        93	    1200	     9.644
  24.600	       105	    1200	    10.247
  24.680	       101	    1200	    10.050
  24.760	        93	    1200	     9.644
  24.840	        79	    1200	     8.888
  24.920	        89	    1200	     9.434
  25.000	        79	    1200	     8.888
  25.080	        74	    1200	     8.602
  25.160	        69	    1200	     8.307
  25.240	        78	    1200	     8.832
  25.320	        90	    1200	     9.487
  25.400	        78	    1200	     8.832
  25.480	        81	    1200	     9.000
  25.560	        79	    1200	     8.888
  25.640	        89	    1200	     9.434
  25.720	        99	    1200	     9.950
  25.800	        95	    1200	     9.747
  25.880	        85	    1200	     9.220
  25.960	        75	    1200	     8.660
  26.040	        71	    1200	     8.426
  26.120	        77	    1200	     8.775
  26.200	        83	    1200	     9.110
  26.280	        72	    1200	     8.485
  26.360	        80	    1200	     8.944
  26.440	        95	    1200	     9.747
  26.520	       103	    1200	    10.149
  26.600	        94	    1200	     9.695
  26.680	        85	    1200	     9.220
  26.760	        87	    1200	     9.327
  26.840	        63	    1200	     7.937
  26.920	        73	    1200	     8.544
  27.000	        70	    1200	     8.367
  27.080	        71	    1200	     8.426
  27.160	        72	    1200	     8.485
  27.240	        58	    1200	     7.616
  27.320	        68	    1200	     8.246
  27.400	        82	    1200	     9.055
  27.480	        72	    1200	     8.485
  27.560	        70	    1200	     8.367
  27.640	        78	    1200	     8.832
  27.720	        91	    1200	     9.539
  27.800	        72	    1200	     8.485
  27.880	        67	    1200	     8.185
  27.960	        68	    1200	     8.246
  28.040	        72	    1200	     8.485
  28.120	        54	    1200	     7.348
  28.200	        53	    1200	     7.280
  28.280	        66	    1200	     8.124
  28.360	        64	    1200	     8.000
  28.440	        55	    1200	     7.416
  28.520	        74	    1200	     8.602
  28.600	        66	    1200	     8.124
  28.680	        78	    1200	     8.832
  28.760	        85	    1200	     9.220
  28.840	        75	    1200	     8.660
  28.920	        73	    1200	     8.544
  29.000	        68	    1200	     8.246
  29.080	        58	    1200	     7.616
  29.160	        71	    1200	     8.426
  29.240	        80	    1200	     8.944
  29.320	        70	    1200	     8.367
  29.400	        70	    1200	     8.367
  29.480	        64	    1200	     8.000
  29.560	        71	    1200	     8.426
  29.640	        55	    1200	     7.416
  29.720	        63	    1200	     7.937
  29.800	        51	    1200	     7.141
  29.880	        69	    1200	     8.307
  29.960	        56	    1200	     7.483
  30.040	        73	    1200	     8.544
  30.120	        51	    1200	     7.141
  30.200	        51	    1200	     7.141
  30.280	        63	    1200	     7.937
  30.360	        54	    1200	     7.348
  30.440	        44	    1200	     6.633
  30.520	        55	    1200	     7.416
  30.600	        51	    1200	     7.141
  30.680	        55	    1200	     7.416
  30.760	        61	    1200	     7.810
  30.840	        54	    1200	     7.348
  30.920	        65	    1200	     8.062
  31.000	        57	    1200	     7.550
  31.080	        59	    1200	     7.681
  31.160	        60	    1200	     7.746
  31.240	        68	    1200	     8.246
  31.320	        73	    1200	     8.544
  31.400	        57	    1200	     7.550
  31.480	        59	    1200	     7.681
  31.560	        64	    1200	     8.000
  31.640	        53	    1200	     7.280
  31.720	        54	    1200	     7.348
  31.800	        72	    1200	     8.485
  31.880	        83	    1200	     9.110
  31.960	       105	    1200	    10.247
  32.040	       133	    1200	    11.533
  32.120	       216	    1200	    14.697
  32.200	       374	    1200	    19.339
  32.280	       650	    1200	    25.495
  32.360	      1331	    1200	    36.483
  32.440	      2806	    1200	    52.972
  32.520	      3019	    1200	    54.945
  32.600	      1734	    1200	    41.641
  32.680	       689	    1200	    26.249
  32.760	       224	    1200	    14.967
  32.840	       160	    1200	    12.649
  32.920	       102	    1200	    10.100
  33.000	        77	    1200	     8.775
  33.080	        92	    1200	     9.592
  33.160	        54	    1200	     7.348
  33.240	        47	    1200	     6.856
  33.320	        71	    1200	     8.426
  33.400	        48	    1200	     6.928
  33.480	        62	    1200	     7.874
  33.560	        56	    1200	     7.483
  33.640	        57	    1200	     7.550
  33.720	        55	    1200	     7.416
  33.800	        46	    1200	     6.782
  33.880	        41	    1200	     6.403
  33.960	        51	    1200	     7.141
  34.040	        42	    1200	     6.481
  34.120	        43	    1200	     6.557
  34.200	        50	    1200	     7.071
  34.280	        52	    1200	     7.211
  34.360	        47	    1200	     6.856
  34.440	        36	    1200	     6.000
  34.520	        44	    1200	     6.633
  34.600	        45	    1200	     6.708
  34.680	        39	    1200	     6.245
  34.760	        42	    1200	     6.481
  34.840	        37	    1200	     6.083
  34.920	        34	    1200	     5.831
  35.000	        32	    1200	     5.657
  35.080	        31	    1200	     5.568
  35.160	        36	    1200	     6.000
  35.240	        37	    1200	     6.083
  35.320	        30	    1200	     5.477
  35.400	        34	    1200	     5.831
  35.480	        34	    1200	     5.831
  35.560	        44	    1200	     6.633
  35.640	        35	    1200	     5.916
  35.720	        36	    1200	     6.000
  35.800	        30	    1200	     5.477
  35.880	        46	    1200	     6.782
  35.960	        34	    1200	     5.831
  36.040	        39	    1200	     6.245
  36.120	        34	    1200	     5.831
  36.200	        34	    1200	     5.831
  36.280	        34	    1200	     5.831
  36.360	        27	    1200	     5.196
  36.440	        31	    1200	     5.568
  36.520	        20	    1200	     4.472
  36.600	        34	    1200	     5.831
  36.680	        29	    1200	     5.385
  36.760	        30	    1200	     5.477
  36.840	        34	    1200	     5.831
  36.920	        41	    1200	     6.403
  37.000	        29	    1200	     5.385
  37.080	        24	    1200	     4.899
  37.160	        36	    1200	     6.000
  37.240	        18	    1200	     4.243
  37.320	        32	    1200	     5.657
  37.400	        18	    1200	     4.243
  37.480	        32	    1200	     5.657
  37.560	        31	    1200	     5.568
  37.640	        30	    1200	     5.477
  37.720	        33	    1200	     5.745
  37.800	        28	    1200	     5.292
  37.880	        40	    1200	     6.325
  37.960	        34	    1200	     5.831
  38.040	        38	    1200	     6.164
  38.120	        32	    1200	     5.657
  38.200	        33	    1200	     5.745
  38.280	        29	    1200	     5.385
  38.360	        31	    1200	     5.568
  38.440	        29	    1200	     5.385
  38.520	        40	    1200	     6.325
  38.600	        31	    1200	     5.568
  38.680	        21	    1200	     4.583
  38.760	        37	    1200	     6.083
  38.840	        30	    1200	     5.477
  38.920	        29	    1200	     5.385
  39.000	        27	    1200	     5.196
  39.080	        35	    1200	     5.916
  39.160	        31	    1200	     5.568
  39.240	        38	    1200	     6.164
  39.320	        48	    1200	     6.928
  39.400	        26	    1200	     5.099
  39.480	        43	    1200	     6.557
  39.560	        47	    1200	     6.856
  39.640	        51	    1200	     7.141
  39.720	        77	    1200	     8.775
  39.800	        72	    1200	     8.485
  39.880	       115	    1200	    10.724
  39.960	       189	    1200	    13.748
  40.040	       358	    1200	    18.921
  40.120	       497	    1200	    22.293
  40.200	       386	    1200	    19.647
  40.280	       215	    1200	    14.663
  40.360	       103	    1200	    10.149
  40.440	        55	    1200	     7.416
  40.520	        44	    1200	     6.633
  40.600	        42	    1200	     6.481
  40.680	        34	    1200	     5.831
  40.760	        35	    1200	     5.916
  40.840	        31	    1200	     5.568
  40.920	        44	    1200	     6.633
  41.000	        26	    1200	     5.099
  41.080	        22	    1200	     4.690
  41.160	        36	    1200	     6.000
  41.240	        29	    1200	     5.385
  41.320	        33	    1200	     5.745
  41.400	        25	    1200	     5.000
  41.480	        29	    1200	     5.385
  41.560	        34	    1200	     5.831
  41.640	        28	    1200	     5.292
  41.720	        20	    1200	     4.472
  41.800	        41	    1200	     6.403
  41.880	        39	    1200	     6.245
  41.960	        28	    1200	     5.292
  42.040	        33	    1200	     5.745
  42.120	        37	    1200	     6.083
  42.200	        26	    1200	     5.099
  42.280	        29	    1200	     5.385
  42.360	        30	    1200	     5.477
  42.440	        28	    1200	     5.292
  42.520	        29	    1200	     5.385
  42.600	        27	    1200	     5.196
  42.680	        40	    1200	     6.325
  42.760	        28	    1200	     5.292
  42.840	        29	    1200	     5.385
  42.920	        28	    1200	     5.292
  43.000	        30	    1200	     5.477
  43.080	        28	    1200	     5.292
  43.160	        22	    1200	     4.690
  43.240	        29	    1200	     5.385
  43.320	        27	    1200	     5.196
  43.400	        34	    1200	     5.831
  43.480	        31	    1200	     5.568
  43.560	        21	    1200	     4.583
  43.640	        18	    1200	     4.243
  43.720	        31	    1200	     5.568
  43.800	        28	    1200	     5.292
  43.880	        25	    1200	     5.000
  43.960	        34	    1200	     5.831
  44.040	        27	    1200	     5.196
  44.120	        36	    1200	     6.000
  44.200	        19	    1200	     4.359
  44.280	        31	    1200	     5.568
  44.360	        23	    1200	     4.796
  44.440	        30	    1200	     5.477
  44.520	        39	    1200	     6.245
  44.600	        26	    1200	     5.099
  44.680	        23	    1200	     4.796
  44.760	        37	    1200	     6.083
  44.840	        39	    1200	     6.245
  44.920	        30	    1200	     5.477
  45.000	        33	    1200	     5.745
  45.080	        29	    1200	     5.385
  45.160	        27	    1200	     5.196
  45.240	        41	    1200	     6.403
  45.320	        29	    1200	     5.385
  45.400	        30	    1200	     5.477
  45.480	        40	    1200	     6.325
  45.560	        32	    1200	     5.657
  45.640	        28	    1200	     5.292
  45.720	        28	    1200	     5.292
  45.800	        36	    1200	     6.000
  45.880	        37	    1200	     6.083
  45.960	        46	    1200	     6.782
  46.040	        47	    1200	     6.856
  46.120	        82	    1200	     9.055
  46.200	       121	    1200	    11.000
  46.280	       162	    1200	    12.728
  46.360	       162	    1200	    12.728
  46.440	       256	    1200	    16.000
  46.520	       355	    1200	    18.841
  46.600	       768	    1200	    27.713
  46.680	       993	    1200	    31.512
  46.760	       851	    1200	    29.172
  46.840	       593	    1200	    24.352
  46.920	       393	    1200	    19.824
  47.000	       234	    1200	    15.297
  47.080	       134	    1200	    11.576
  47.160	        74	    1200	     8.602
  47.240	        54	    1200	     7.348
  47.320	        43	    1200	     6.557
  47.400	        36	    1200	     6.000
  47.480	        38	    1200	     6.164
  47.560	        25	    1200	     5.000
  47.640	        39	    1200	     6.245
  47.720	        43	    1200	     6.557
  47.800	        27	    1200	     5.196
  47.880	        35	    1200	     5.916
  47.960	        28	    1200	     5.292
  48.040	        24	    1200	     4.899
  48.120	        23	    1200	     4.796
  48.200	        36	    1200	     6.000
  48.280	        21	    1200	     4.583
  48.360	        39	    1200	     6.245
  48.440	        30	    1200	     5.477
  48.520	        27	    1200	     5.196
  48.600	        25	    1200	     5.000
  48.680	        31	    1200	     5.568
  48.760	        22	    1200	     4.690
  48.840	        28	    1200	     5.292
  48.920	        28	    1200	     5.292
  49.000	        27	    1200	     5.196
  49.080	        34	    1200	     5.831
  49.160	        17	    1200	     4.123
  49.240	        29	    1200	     5.385
  49.320	        20	    1200	     4.472
  49.400	        29	    1200	     5.385
  49.480	        25	    1200	     5.000
  49.560	        28	    1200	     5.292
  49.640	        24	    1200	     4.899
  49.720	        31	    1200	     5.568
  49.800	        27	    1200	     5.196
  49.880	        28	    1200	     5.292
  49.960	        26	    1200	     5.099
  50.040	        24	    1200	     4.899
  50.120	        29	    1200	     5.385
  50.200	        33	    1200	     5.745
  50.280	        31	    1200	     5.568
  50.360	        22	    1200	     4.690
  50.440	        24	    1200	     4.899
  50.520	        26	    1200	     5.099
  50.600	        22	    1200	     4.690
  50.680	        23	    1200	     4.796
  50.760	        27	    1200	     5.196
  50.840	        27	    1200	     5.196
  50.920	        15	    1200	     3.873
  51.000	        25	    1200	     5.000
  51.080	        25	    1200	     5.000
  51.160	        23	    1200	     4.796
  51.240	        29	    1200	     5.385
  51.320	        28	    1200	     5.292
  51.400	        32	    1200	     5.657
  51.480	        21	    1200	     4.583
  51.560	        16	    1200	     4.000
  51.640	        23	    1200	     4.796
  51.720	        21	    1200	     4.583
  51.800	        22	    1200	     4.690
  51.880	        23	    1200	     4.796
  51.960	        25	    1200	     5.000
  52.040	        15	    1200	     3.873
  52.120	        28	    1200	     5.292
  52.200	        25	    1200	     5.000
  52.280	        32	    1200	     5.657
  52.360	        27	    1200	     5.196
  52.440	        32	    1200	     5.657
  52.520	        46	    1200	     6.782
  52.600	        59	    1200	     7.681
  52.680	        59	    1200	     7.681
  52.760	        55	    1200	     7.416
  52.840	        39	    1200	     6.245
  52.920	        31	    1200	     5.568
  53.000	        25	    1200	     5.000
  53.080	        23	    1200	     4.796
  53.160	        14	    1200	     3.742
  53.240	        37	    1200	     6.083
  53.320	        33	    1200	     5.745
  53.400	        21	    1200	     4.583
  53.480	        28	    1200	     5.292
  53.560	        27	    1200	     5.196
  53.640	        17	    1200	     4.123
  53.720	        23	    1200	     4.796
  53.800	        22	    1200	     4.690
  53.880	        27	    1200	     5.196
  53.960	        22	    1200	     4.690
  54.040	        30	    1200	     5.477
  54.120	        31	    1200	     5.568
  54.200	        17	    1200	     4.123
  54.280	        17	    1200	     4.123
  54.360	        21	    1200	     4.583
  54.440	        24	    1200	     4.899
  54.520	        19	    1200	     4.359
  54.600	        22	    1200	     4.690
  54.680	        22	    1200	     4.690
  54.760	        19	    1200	     4.359
  54.840	        31	    1200	     5.568
  54.920	        23	    1200	     4.796
  55.000	        21	    1200	     4.583
  55.080	        26	    1200	     5.099
  55.160	        25	    1200	     5.000
  55.240	        20	    1200	     4.472
  55.320	        23	    1200	     4.796
  55.400	        33	    1200	     5.745
  55.480	        35	    1200	     5.916
  55.560	        27	    1200	     5.196
  55.640	        27	    1200	     5.196
  55.720	        25	    1200	     5.000
  55.800	        27	    1200	     5.196
  55.880	        25	    1200	     5.000
  55.960	        29	    1200	     5.385
  56.040	        28	    1200	     5.292
  56.120	        32	    1200	     5.657
  56.200	        27	    1200	     5.196
  56.280	        35	    1200	     5.916
  56.360	        24	    1200	     4.899
  56.440	        30	    1200	     5.477
  56.520	        25	    1200	     5.000
  56.600	        24	    1200	     4.899
  56.680	        36	    1200	     6.000
  56.760	        29	    1200	     5.385
  56.840	        32	    1200	     5.657
  56.920	        41	    1200	     6.403
  57.000	        31	    1200	     5.568
  57.080	        32	    1200	     5.657
  57.160	        40	    1200	     6.325
  57.240	        32	    1200	     5.657
  57.320	        32	    1200	     5.657
  57.400	        42	    1200	     6.481
  57.480	        87	    1200	     9.327
  57.560	       118	    1200	    10.863
  57.640	       110	    1200	    10.488
  57.720	       152	    1200	    12.329
  57.800	       198	    1200	    14.071
  57.880	       255	    1200	    15.969
  57.960	       385	    1200	    19.621
  58.040	       719	    1200	    26.814
  58.120	       893	    1200	    29.883
  58.200	       878	    1200	    29.631
  58.280	       736	    1200	    27.129
  58.360	       471	    1200	    21.703
  58.440	       261	    1200	    16.155
  58.520	       180	    1200	    13.416
  58.600	        98	    1200	     9.899
  58.680	        72	    1200	     8.485
  58.760	        39	    1200	     6.245
  58.840	        44	    1200	     6.633
  58.920	        45	    1200	     6.708
  59.000	        29	    1200	     5.385
  59.080	        25	    1200	     5.000
  59.160	        38	    1200	     6.164
  59.240	        31	    1200	     5.568
  59.320	        34	    1200	     5.831
  59.400	        37	    1200	     6.083
  59.480	        22	    1200	     4.690
  59.560	        28	    1200	     5.292
  59.640	        39	    1200	     6.245
  59.720	        34	    1200	     5.831
  59.800	        22	    1200	     4.690
  59.880	        19	    1200	     4.359
  59.960	        20	    1200	     4.472
  60.040	        28	    1200	     5.292
  60.120	        28	    1200	     5.292
  60.200	        35	    1200	     5.916
  60.280	        25	    1200	     5.000
  60.360	        27	    1200	     5.196
  60.440	        24	    1200	     4.899
  60.520	        29	    1200	     5.385
  60.600	        28	    1200	     5.292
  60.680	        25	    1200	     5.000
  60.760	        35	    1200	     5.916
  60.840	        28	    1200	     5.292
  60.920	        28	    1200	     5.292
  61.000	        19	    1200	     4.359
  61.080	        30	    1200	     5.477
  61.160	        22	    1200	     4.690
  61.240	        26	    1200	     5.099
  61.320	        32	    1200	     5.657
  61.400	        22	    1200	     4.690
  61.480	        25	    1200	     5.000
  61.560	        18	    1200	     4.243
  61.640	        25	    1200	     5.000
  61.720	        27	    1200	     5.196
  61.800	        24	    1200	     4.899
  61.880	        25	    1200	     5.000
  61.960	        26	    1200	     5.099
  62.040	        23	    1200	     4.796
  62.120	        31	    1200	     5.568
  62.200	        23	    1200	     4.796
  62.280	        29	    1200	     5.385
  62.360	        25	    1200	     5.000
  62.440	        18	    1200	     4.243
  62.520	        24	    1200	     4.899
  62.600	        24	    1200	     4.899
  62.680	        32	    1200	     5.657
  62.760	        23	    1200	     4.796
  62.840	        26	    1200	     5.099
  62.920	        28	    1200	     5.292
  63.000	        32	    1200	     5.657
  63.080	        30	    1200	     5.477
  63.160	        22	    1200	     4.690
  63.240	        20	    1200	     4.472
  63.320	        23	    1200	     4.796
  63.400	        25	    1200	     5.000
  63.480	        30	    1200	     5.477
  63.560	        25	    1200	     5.000
  63.640	        22	    1200	     4.690
  63.720	        18	    1200	     4.243
  63.800	        17	    1200	     4.123
  63.880	        27	    1200	     5.196
  63.960	        23	    1200	     4.796
  64.040	        20	    1200	     4.472
  64.120	        32	    1200	     5.657
  64.200	        24	    1200	     4.899
  64.280	        30	    1200	     5.477
  64.360	        35	    1200	     5.916
  64.440	        23	    1200	     4.796
  64.520	        28	    1200	     5.292
  64.600	        34	    1200	     5.831
  64.680	        31	    1200	     5.568
  64.760	        19	    1200	     4.359
  64.840	        19	    1200	     4.359
  64.920	        26	    1200	     5.099
  65.000	        20	    1200	     4.472
  65.080	        27	    1200	     5.196
  65.160	        23	    1200	     4.796
  65.240	        35	    1200	     5.916
  65.320	        23	    1200	     4.796
  65.400	        29	    1200	     5.385
  65.480	        33	    1200	     5.745
  65.560	        21	    1200	     4.583
  65.640	        23	    1200	     4.796
  65.720	        32	    1200	     5.657
  65.800	        25	    1200	     5.000
  65.880	        29	    1200	     5.385
  65.960	        30	    1200	     5.477
  66.040	        23	    1200	     4.796
  66.120	        26	    1200	     5.099
  66.200	        28	    1200	     5.292
  66.280	        26	    1200	     5.099
  66.360	        22	    1200	     4.690
  66.440	        35	    1200	     5.916
  66.520	        30	    1200	     5.477
  66.600	        22	    1200	     4.690
  66.680	        29	    1200	     5.385
  66.760	        25	    1200	     5.000
  66.840	        35	    1200	     5.916
  66.920	        26	    1200	     5.099
  67.000	        27	    1200	     5.196
  67.080	        31	    1200	     5.568
  67.160	        24	    1200	     4.899
  67.240	        36	    1200	     6.000
  67.320	        31	    1200	     5.568
  67.400	        26	    1200	     5.099
  67.480	        43	    1200	     6.557
  67.560	        66	    1200	     8.124
  67.640	        59	    1200	     7.681
  67.720	        73	    1200	     8.544
  67.800	        70	    1200	     8.367
  67.880	        74	    1200	     8.602
  67.960	       129	    1200	    11.358
  68.040	       160	    1200	    12.649
  68.120	       216	    1200	    14.697
  68.200	       389	    1200	    19.723
  68.280	       400	    1200	    20.000
  68.360	       445	    1200	    21.095
  68.440	       344	    1200	    18.547
  68.520	       294	    1200	    17.146
  68.600	       185	    1200	    13.601
  68.680	       145	    1200	    12.042
  68.760	        96	    1200	     9.798
  68.840	        48	    1200	     6.928
  68.920	        47	    1200	     6.856
  69.000	        44	    1200	     6.633
  69.080	        32	    1200	     5.657
  69.160	        32	    1200	     5.657
  69.240	        41	    1200	     6.403
  69.320	        22	    1200	     4.690
  69.400	        28	    1200	     5.292
  69.480	        28	    1200	     5.292
  69.560	        33	    1200	     5.745
  69.640	        26	    1200	     5.099
  69.720	        25	    1200	     5.000
  69.800	        28	    1200	     5.292
  69.880	        28	    1200	     5.292
  69.960	        19	    1200	     4.359
  70.040	        23	    1200	     4.796
  70.120	        27	    1200	     5.196
  70.200	        25	    1200	     5.000
  70.280	        24	    1200	     4.899
  70.360	        27	    1200	     5.196
  70.440	        15	    1200	     3.873
  70.520	        22	    1200	     4.690
  70.600	        32	    1200	     5.657
  70.680	        18	    1200	     4.243
  70.760	        20	    1200	     4.472
  70.840	        25	    1200	     5.000
  70.920	        25	    1200	     5.000
  71.000	        32	    1200	     5.657
  71.080	        31	    1200	     5.568
  71.160	        19	    1200	     4.359
  71.240	        28	    1200	     5.292
  71.320	        18	    1200	     4.243
  71.400	        27	    1200	     5.196
  71.480	        20	    1200	     4.472
  71.560	        17	    1200	     4.123
  71.640	        31	    1200	     5.568
  71.720	        22	    1200	     4.690
  71.800	        25	    1200	     5.000
  71.880	        13	    1200	     3.606
  71.960	        18	    1200	     4.243
  72.040	        25	    1200	     5.000
  72.120	        26	    1200	     5.099
  72.200	        19	    1200	     4.359
  72.280	        22	    1200	     4.690
  72.360	        24	    1200	     4.899
  72.440	        19	    1200	     4.359
  72.520	        24	    1200	     4.899
  72.600	        27	    1200	     5.196
  72.680	        24	    1200	     4.899
  72.760	        24	    1200	     4.899
  72.840	        29	    1200	     5.385
  72.920	        33	    1200	     5.745
  73.000	        37	    1200	     6.083
  73.080	        47	    1200	     6.856
  73.160	        39	    1200	     6.245
  73.240	        35	    1200	     5.916
  73.320	        25	    1200	     5.000
  73.400	        21	    1200	     4.583
  73.480	        33	    1200	     5.745
  73.560	        34	    1200	     5.831
  73.640	        32	    1200	     5.657
  73.720	        20	    1200	     4.472
  73.800	        25	    1200	     5.000
  73.880	        19	    1200	     4.359
  73.960	        23	    1200	     4.796
  74.040	        33	    1200	     5.745
  74.120	        23	    1200	     4.796
  74.200	        24	    1200	     4.899
  74.280	        29	    1200	     5.385
  74.360	        18	    1200	     4.243
  74.440	        10	    1200	     3.162
  74.520	        18	    1200	     4.243
  74.600	        28	    1200	     5.292
  74.680	        27	    1200	     5.196
  74.760	        24	    1200	     4.899
  74.840	        20	    1200	     4.472
  74.920	        20	    1200	     4.472
  75.000	        25	    1200	     5.000
  75.080	        22	    1200	     4.690
  75.160	        21	    1200	     4.583
  75.240	        24	    1200	     4.899
  75.320	        29	    1200	     5.385
  75.400	        16	    1200	     4.000
  75.480	        21	    1200	     4.583
  75.560	        26	    1200	     5.099
  75.640	        23	    1200	     4.796
  75.720	        25	    1200	     5.000
  75.800	        35	    1200	     5.916
  75.880	        20	    1200	     4.472
  75.960	        20	    1200	     4.472
  76.040	        23	    1200	     4.796
  76.120	        22	    1200	     4.690
  76.200	        24	    1200	     4.899
  76.280	        29	    1200	     5.385
  76.360	        29	    1200	     5.385
  76.440	        28	    1200	     5.292
  76.520	        25	    1200	     5.000
  76.600	        27	    1200	     5.196
  76.680	        31	    1200	     5.568
  76.760	        29	    1200	     5.385
  76.840	        30	    1200	     5.477
  76.920	        40	    1200	     6.325
  77.000	        50	    1200	     7.071
  77.080	        63	    1200	     7.937
  77.160	        54	    1200	     7.348
  77.240	        62	    1200	     7.874
  77.320	        67	    1200	     8.185
  77.400	        85	    1200	     9.220
  77.480	       110	    1200	    10.488
  77.560	       157	    1200	    12.530
  77.640	       189	    1200	    13.748
  77.720	       264	    1200	    16.248
  77.800	       285	    1200	    16.882
  77.880	       247	    1200	    15.716
  77.960	       234	    1200	    15.297
  78.040	       179	    1200	    13.379
  78.120	       127	    1200	    11.269
  78.200	       108	    1200	    10.392
  78.280	        73	    1200	     8.544
  78.360	        53	    1200	     7.280
  78.440	        52	    1200	     7.211
  78.520	        41	    1200	     6.403
  78.600	        35	    1200	     5.916
  78.680	        35	    1200	     5.916
  78.760	        26	    1200	     5.099
  78.840	        22	    1200	     4.690
  78.920	        30	    1200	     5.477
  79.000	        21	    1200	     4.583
  79.080	        23	    1200	     4.796
  79.160	        32	    1200	     5.657
  79.240	        26	    1200	     5.099
  79.320	        31	    1200	     5.568
  79.400	        26	    1200	     5.099
  79.480	        21	    1200	     4.583
  79.560	        29	    1200	     5.385
  79.640	        38	    1200	     6.164
  79.720	        28	    1200	     5.292
  79.800	        25	    1200	     5.000
  79.880	        24	    1200	     4.899
  79.960	        23	    1200	     4.796
  80.040	        26	    1200	     5.099
  80.120	        33	    1200	     5.745
  80.200	        22	    1200	     4.690
  80.280	        30	    1200	     5.477
  80.360	        22	    1200	     4.690
  80.440	        19	    1200	     4.359
  80.520	        23	    1200	     4.796
  80.600	        20	    1200	     4.472
  80.680	        22	    1200	     4.690
  80.760	        25	    1200	     5.000
  80.840	        21	    1200	     4.583
  80.920	        21	    1200	     4.583
  81.000	        23	    1200	     4.796
  81.080	        26	    1200	     5.099
  81.160	        22	    1200	     4.690
  81.240	        25	    1200	     5.000
  81.320	        37	    1200	     6.083
  81.400	        29	    1200	     5.385
  81.480	        26	    1200	     5.099
  81.560	        20	    1200	     4.472
  81.640	        27	    1200	     5.196
  81.720	        31	    1200	     5.568
  81.800	        28	    1200	     5.292
  81.880	        29	    1200	     5.385
  81.960	        28	    1200	     5.292
  82.040	        52	    1200	     7.211
  82.120	        54	    1200	     7.348
  82.200	        43	    1200	     6.557
  82.280	        59	    1200	     7.681
  82.360	        81	    1200	     9.000
  82.440	        84	    1200	     9.165
  82.520	        69	    1200	     8.307
  82.600	        51	    1200	     7.141
  82.680	        58	    1200	     7.616
  82.760	        46	    1200	     6.782
  82.840	        37	    1200	     6.083
  82.920	        27	    1200	     5.196
  83.000	        25	    1200	     5.000
  83.080	        33	    1200	     5.745
  83.160	        30	    1200	     5.477
  83.240	        33	    1200	     5.745
  83.320	        23	    1200	     4.796
  83.400	        18	    1200	     4.243
  83.480	        17	    1200	     4.123
  83.560	        16	    1200	     4.000
  83.640	        21	    1200	     4.583
  83.720	        17	    1200	     4.123
  83.800	        22	    1200	     4.690
  83.880	        27	    1200	     5.196
  83.960	        15	    1200	     3.873
  84.040	        17	    1200	     4.123
  84.120	        24	    1200	     4.899
  84.200	        22	    1200	     4.690
  84.280	        17	    1200	     4.123
  84.360	        19	    1200	     4.359
  84.440	        17	    1200	     4.123
  84.520	        19	    1200	     4.359
  84.600	        23	    1200	     4.796
  84.680	        14	    1200	     3.742
  84.760	        27	    1200	     5.196
  84.840	        25	    1200	     5.000
  84.920	        14	    1200	     3.742
  85.000	        20	    1200	     4.472
  85.080	        17	    1200	     4.123
  85.160	        20	    1200	     4.472
  85.240	        23	    1200	     4.796
  85.320	        21	    1200	     4.583
  85.400	        25	    1200	     5.000
  85.480	        23	    1200	     4.796
  85.560	        24	    1200	     4.899
  85.640	        29	    1200	     5.385
  85.720	        24	    1200	     4.899
  85.800	        30	    1200	     5.477
  85.880	        17	    1200	     4.123
  85.960	        29	    1200	     5.385
  86.040	        34	    1200	     5.831
  86.120	        44	    1200	     6.633
  86.200	        32	    1200	     5.657
  86.280	        32	    1200	     5.657
  86.360	        35	    1200	     5.916
  86.440	        36	    1200	     6.000
  86.520	        38	    1200	     6.164
  86.600	        45	    1200	     6.708
  86.680	        63	    1200	     7.937
  86.760	        94	    1200	     9.695
  86.840	       105	    1200	    10.247
  86.920	       105	    1200	    10.247
  87.000	       111	    1200	    10.536
  87.080	        96	    1200	     9.798
  87.160	       104	    1200	    10.198
  87.240	        81	    1200	     9.000
  87.320	        67	    1200	     8.185
  87.400	        58	    1200	     7.616
  87.480	        39	    1200	     6.245
  87.560	        41	    1200	     6.403
  87.640	        28	    1200	     5.292
  87.720	        24	    1200	     4.899
  87.800	        29	    1200	     5.385
  87.880	        28	    1200	     5.292
  87.960	        15	    1200	     3.873
  88.040	        27	    1200	     5.196
  88.120	        18	    1200	     4.243
  88.200	        32	    1200	     5.657
  88.280	        17	    1200	     4.123
  88.360	        20	    1200	     4.472
  88.440	        23	    1200	     4.796
  88.520	        15	    1200	     3.873
  88.600	        29	    1200	     5.385
  88.680	        15	    1200	     3.873
  88.760	        24	    1200	     4.899
  88.840	        26	    1200	     5.099
  88.920	        18	    1200	     4.243
  89.000	        26	    1200	     5.099
  89.080	        22	    1200	     4.690
  89.160	        22	    1200	     4.690
  89.240	        34	    1200	     5.831
  89.320	        22	    1200	     4.690
  89.400	        15	    1200	     3.873
  89.480	        21	    1200	     4.583
  89.560	        25	    1200	     5.000
  89.640	        17	    1200	     4.123
  89.720	        24	    1200	     4.899
  89.800	        14	    1200	     3.742
  89.880	        20	    1200	     4.472
  89.960	        34	    1200	     5.831
  90.000	        23	    1200	     4.796