File: Ex Situ XRD/STF8 850C 97H2 4Hr.txt
         ID:

    Comment:

Scan Type: Normal
Start Angle: 15 deg.
Stop Angle: 90 deg.
Num Points: 3751
Step Size: 0.02 deg.
Datafile Res: 1600
Scan Rate: 1.000000
Scan Mode: Continuous
Wavelength: 1.540562

Diffractometer Optics:
		Detector:
			 Type: Fixed Slits
			 X2 Configuration: No
		Tube:
			 Type: Fixed Slits
			 X2 Configuration: No

Axis[0]
	 Selected   : no
	 Iterative  : no
	 Start Angle: 0.000000
	 Stop Angle : 0.000000
	 Step Size  : 0.000000
	 Oscillating: no

Axis[1]
	 Selected   : no
	 Iterative  : no
	 Start Angle: 0.000000
	 Stop Angle : 0.000000
	 Step Size  : 0.000000
	 Oscillating: no

Axis[2]
	 Selected   : no
	 Iterative  : no
	 Start Angle: 0.000000
	 Stop Angle : 0.000000
	 Step Size  : 0.000000
	 Oscillating: no

Axis[3]
	 Selected   : no
	 Iterative  : no
	 Start Angle: 0.000000
	 Stop Angle : 0.000000
	 Step Size  : 0.000000
	 Oscillating: no

Axis[4]
	 Selected   : no
	 Iterative  : no
	 Start Angle: 0.000000
	 Stop Angle : 0.000000
	 Step Size  : 0.000000
	 Oscillating: no

Axis[5]
	 Selected   : no
	 Iterative  : no
	 Start Angle: 0.000000
	 Stop Angle : 0.000000
	 Step Size  : 0.000000
	 Oscillating: no

Axis[6]
	 Selected   : no
	 Iterative  : no
	 Start Angle: 0.000000
	 Stop Angle : 0.000000
	 Step Size  : 0.000000
	 Oscillating: no

Axis[7]
	 Selected   : no
	 Iterative  : no
	 Start Angle: 0.000000
	 Stop Angle : 0.000000
	 Step Size  : 0.000000
	 Oscillating: no

Axis[8]
	 Selected   : no
	 Iterative  : no
	 Start Angle: 0.000000
	 Stop Angle : 0.000000
	 Step Size  : 0.000000
	 Oscillating: no

Axis[9]
	 Selected   : no
	 Iterative  : no
	 Start Angle: 0.000000
	 Stop Angle : 0.000000
	 Step Size  : 0.000000
	 Oscillating: no

	   Deg.    Counts 	   Time 	    ESD

Range 0
  15.000	       104	    1200	    10.198
  15.080	        96	    1200	     9.798
  15.160	        98	    1200	     9.899
  15.240	       103	    1200	    10.149
  15.320	       115	    1200	    10.724
  15.400	       101	    1200	    10.050
  15.480	       114	    1200	    10.677
  15.560	       102	    1200	    10.100
  15.640	        95	    1200	     9.747
  15.720	        99	    1200	     9.950
  15.800	       104	    1200	    10.198
  15.880	       103	    1200	    10.149
  15.960	        94	    1200	     9.695
  16.040	       101	    1200	    10.050
  16.120	       111	    1200	    10.536
  16.200	        94	    1200	     9.695
  16.280	        91	    1200	     9.539
  16.360	       107	    1200	    10.344
  16.440	        95	    1200	     9.747
  16.520	        99	    1200	     9.950
  16.600	       105	    1200	    10.247
  16.680	       120	    1200	    10.954
  16.760	       119	    1200	    10.909
  16.840	        90	    1200	     9.487
  16.920	        99	    1200	     9.950
  17.000	       104	    1200	    10.198
  17.080	        81	    1200	     9.000
  17.160	       101	    1200	    10.050
  17.240	        92	    1200	     9.592
  17.320	       106	    1200	    10.296
  17.400	        91	    1200	     9.539
  17.480	       115	    1200	    10.724
  17.560	        96	    1200	     9.798
  17.640	       100	    1200	    10.000
  17.720	       106	    1200	    10.296
  17.800	        99	    1200	     9.950
  17.880	        98	    1200	     9.899
  17.960	        95	    1200	     9.747
  18.040	       101	    1200	    10.050
  18.120	       117	    1200	    10.817
  18.200	        82	    1200	     9.055
  18.280	       112	    1200	    10.583
  18.360	       101	    1200	    10.050
  18.440	       108	    1200	    10.392
  18.520	       107	    1200	    10.344
  18.600	        81	    1200	     9.000
  18.680	       106	    1200	    10.296
  18.760	       100	    1200	    10.000
  18.840	        95	    1200	     9.747
  18.920	       101	    1200	    10.050
  19.000	       108	    1200	    10.392
  19.080	        98	    1200	     9.899
  19.160	       100	    1200	    10.000
  19.240	        90	    1200	     9.487
  19.320	        94	    1200	     9.695
  19.400	        92	    1200	     9.592
  19.480	        99	    1200	     9.950
  19.560	       102	    1200	    10.100
  19.640	        81	    1200	     9.000
  19.720	       105	    1200	    10.247
  19.800	       117	    1200	    10.817
  19.880	       103	    1200	    10.149
  19.960	        93	    1200	     9.644
  20.040	        94	    1200	     9.695
  20.120	        90	    1200	     9.487
  20.200	       104	    1200	    10.198
  20.280	        98	    1200	     9.899
  20.360	        89	    1200	     9.434
  20.440	       107	    1200	    10.344
  20.520	       106	    1200	    10.296
  20.600	       104	    1200	    10.198
  20.680	       123	    1200	    11.091
  20.760	       103	    1200	    10.149
  20.840	       127	    1200	    11.269
  20.920	       102	    1200	    10.100
  21.000	        93	    1200	     9.644
  21.080	       112	    1200	    10.583
  21.160	       126	    1200	    11.225
  21.240	       110	    1200	    10.488
  21.320	        89	    1200	     9.434
  21.400	       108	    1200	    10.392
  21.480	       107	    1200	    10.344
  21.560	       105	    1200	    10.247
  21.640	       110	    1200	    10.488
  21.720	       124	    1200	    11.136
  21.800	       109	    1200	    10.440
  21.880	       127	    1200	    11.269
  21.960	       119	    1200	    10.909
  22.040	       118	    1200	    10.863
  22.120	       122	    1200	    11.045
  22.200	       108	    1200	    10.392
  22.280	       105	    1200	    10.247
  22.360	       108	    1200	    10.392
  22.440	       131	    1200	    11.446
  22.520	       124	    1200	    11.136
  22.600	        92	    1200	     9.592
  22.680	       130	    1200	    11.402
  22.760	       123	    1200	    11.091
  22.840	       129	    1200	    11.358
  22.920	       136	    1200	    11.662
  23.000	       119	    1200	    10.909
  23.080	       128	    1200	    11.314
  23.160	       106	    1200	    10.296
  23.240	       114	    1200	    10.677
  23.320	       115	    1200	    10.724
  23.400	       127	    1200	    11.269
  23.480	        96	    1200	     9.798
  23.560	       109	    1200	    10.440
  23.640	       116	    1200	    10.770
  23.720	        84	    1200	     9.165
  23.800	       100	    1200	    10.000
  23.880	       103	    1200	    10.149
  23.960	       136	    1200	    11.662
  24.040	       109	    1200	    10.440
  24.120	       103	    1200	    10.149
  24.200	       112	    1200	    10.583
  24.280	       126	    1200	    11.225
  24.360	       100	    1200	    10.000
  24.440	       121	    1200	    11.000
  24.520	       103	    1200	    10.149
  24.600	       111	    1200	    10.536
  24.680	       106	    1200	    10.296
  24.760	       129	    1200	    11.358
  24.840	       106	    1200	    10.296
  24.920	       121	    1200	    11.000
  25.000	       104	    1200	    10.198
  25.080	       108	    1200	    10.392
  25.160	        81	    1200	     9.000
  25.240	       103	    1200	    10.149
  25.320	        96	    1200	     9.798
  25.400	        96	    1200	     9.798
  25.480	        98	    1200	     9.899
  25.560	        94	    1200	     9.695
  25.640	        84	    1200	     9.165
  25.720	        88	    1200	     9.381
  25.800	        94	    1200	     9.695
  25.880	        88	    1200	     9.381
  25.960	        97	    1200	     9.849
  26.040	        88	    1200	     9.381
  26.120	        85	    1200	     9.220
  26.200	        77	    1200	     8.775
  26.280	        93	    1200	     9.644
  26.360	        99	    1200	     9.950
  26.440	        91	    1200	     9.539
  26.520	        73	    1200	     8.544
  26.600	        81	    1200	     9.000
  26.680	        83	    1200	     9.110
  26.760	        93	    1200	     9.644
  26.840	        96	    1200	     9.798
  26.920	        61	    1200	     7.810
  27.000	        70	    1200	     8.367
  27.080	        85	    1200	     9.220
  27.160	        91	    1200	     9.539
  27.240	        63	    1200	     7.937
  27.320	        83	    1200	     9.110
  27.400	        77	    1200	     8.775
  27.480	        71	    1200	     8.426
  27.560	        60	    1200	     7.746
  27.640	        66	    1200	     8.124
  27.720	        72	    1200	     8.485
  27.800	        73	    1200	     8.544
  27.880	        66	    1200	     8.124
  27.960	        73	    1200	     8.544
  28.040	        95	    1200	     9.747
  28.120	        55	    1200	     7.416
  28.200	        78	    1200	     8.832
  28.280	        67	    1200	     8.185
  28.360	        54	    1200	     7.348
  28.440	        78	    1200	     8.832
  28.520	        84	    1200	     9.165
  28.600	        69	    1200	     8.307
  28.680	        68	    1200	     8.246
  28.760	        70	    1200	     8.367
  28.840	        69	    1200	     8.307
  28.920	        69	    1200	     8.307
  29.000	        55	    1200	     7.416
  29.080	        69	    1200	     8.307
  29.160	        64	    1200	     8.000
  29.240	        67	    1200	     8.185
  29.320	        58	    1200	     7.616
  29.400	        70	    1200	     8.367
  29.480	        79	    1200	     8.888
  29.560	        67	    1200	     8.185
  29.640	        80	    1200	     8.944
  29.720	        57	    1200	     7.550
  29.800	        66	    1200	     8.124
  29.880	        57	    1200	     7.550
  29.960	        55	    1200	     7.416
  30.040	        61	    1200	     7.810
  30.120	        62	    1200	     7.874
  30.200	        61	    1200	     7.810
  30.280	        57	    1200	     7.550
  30.360	        56	    1200	     7.483
  30.440	        58	    1200	     7.616
  30.520	        70	    1200	     8.367
  30.600	        63	    1200	     7.937
  30.680	        54	    1200	     7.348
  30.760	        62	    1200	     7.874
  30.840	        69	    1200	     8.307
  30.920	        63	    1200	     7.937
  31.000	        97	    1200	     9.849
  31.080	        73	    1200	     8.544
  31.160	        74	    1200	     8.602
  31.240	        95	    1200	     9.747
  31.320	       150	    1200	    12.247
  31.400	       191	    1200	    13.820
  31.480	       300	    1200	    17.321
  31.560	       299	    1200	    17.292
  31.640	       320	    1200	    17.889
  31.720	       362	    1200	    19.026
  31.800	       340	    1200	    18.439
  31.880	       267	    1200	    16.340
  31.960	       234	    1200	    15.297
  32.040	       285	    1200	    16.882
  32.120	       389	    1200	    19.723
  32.200	       563	    1200	    23.728
  32.280	       681	    1200	    26.096
  32.360	       709	    1200	    26.627
  32.440	       558	    1200	    23.622
  32.520	       429	    1200	    20.712
  32.600	       282	    1200	    16.793
  32.680	       234	    1200	    15.297
  32.760	       188	    1200	    13.711
  32.840	       143	    1200	    11.958
  32.920	       112	    1200	    10.583
  33.000	        84	    1200	     9.165
  33.080	        61	    1200	     7.810
  33.160	        81	    1200	     9.000
  33.240	        56	    1200	     7.483
  33.320	        58	    1200	     7.616
  33.400	        62	    1200	     7.874
  33.480	        63	    1200	     7.937
  33.560	        58	    1200	     7.616
  33.640	        55	    1200	     7.416
  33.720	        64	    1200	     8.000
  33.800	        47	    1200	     6.856
  33.880	        55	    1200	     7.416
  33.960	        36	    1200	     6.000
  34.040	        47	    1200	     6.856
  34.120	        45	    1200	     6.708
  34.200	        52	    1200	     7.211
  34.280	        48	    1200	     6.928
  34.360	        42	    1200	     6.481
  34.440	        48	    1200	     6.928
  34.520	        46	    1200	     6.782
  34.600	        45	    1200	     6.708
  34.680	        42	    1200	     6.481
  34.760	        52	    1200	     7.211
  34.840	        53	    1200	     7.280
  34.920	        39	    1200	     6.245
  35.000	        46	    1200	     6.782
  35.080	        48	    1200	     6.928
  35.160	        48	    1200	     6.928
  35.240	        40	    1200	     6.325
  35.320	        41	    1200	     6.403
  35.400	        55	    1200	     7.416
  35.480	        50	    1200	     7.071
  35.560	        51	    1200	     7.141
  35.640	        42	    1200	     6.481
  35.720	        52	    1200	     7.211
  35.800	        49	    1200	     7.000
  35.880	        43	    1200	     6.557
  35.960	        59	    1200	     7.681
  36.040	        39	    1200	     6.245
  36.120	        41	    1200	     6.403
  36.200	        47	    1200	     6.856
  36.280	        31	    1200	     5.568
  36.360	        34	    1200	     5.831
  36.440	        33	    1200	     5.745
  36.520	        31	    1200	     5.568
  36.600	        27	    1200	     5.196
  36.680	        31	    1200	     5.568
  36.760	        36	    1200	     6.000
  36.840	        36	    1200	     6.000
  36.920	        41	    1200	     6.403
  37.000	        47	    1200	     6.856
  37.080	        28	    1200	     5.292
  37.160	        34	    1200	     5.831
  37.240	        47	    1200	     6.856
  37.320	        59	    1200	     7.681
  37.400	        37	    1200	     6.083
  37.480	        50	    1200	     7.071
  37.560	        33	    1200	     5.745
  37.640	        30	    1200	     5.477
  37.720	        36	    1200	     6.000
  37.800	        45	    1200	     6.708
  37.880	        36	    1200	     6.000
  37.960	        35	    1200	     5.916
  38.040	        37	    1200	     6.083
  38.120	        41	    1200	     6.403
  38.200	        46	    1200	     6.782
  38.280	        52	    1200	     7.211
  38.360	        49	    1200	     7.000
  38.440	        38	    1200	     6.164
  38.520	        59	    1200	     7.681
  38.600	        42	    1200	     6.481
  38.680	        53	    1200	     7.280
  38.760	        43	    1200	     6.557
  38.840	        49	    1200	     7.000
  38.920	        38	    1200	     6.164
  39.000	        39	    1200	     6.245
  39.080	        35	    1200	     5.916
  39.160	        50	    1200	     7.071
  39.240	        44	    1200	     6.633
  39.320	        41	    1200	     6.403
  39.400	        37	    1200	     6.083
  39.480	        48	    1200	     6.928
  39.560	        48	    1200	     6.928
  39.640	        53	    1200	     7.280
  39.720	        91	    1200	     9.539
  39.800	        90	    1200	     9.487
  39.880	        78	    1200	     8.832
  39.960	        73	    1200	     8.544
  40.040	        63	    1200	     7.937
  40.120	        55	    1200	     7.416
  40.200	        42	    1200	     6.481
  40.280	        50	    1200	     7.071
  40.360	        67	    1200	     8.185
  40.440	        37	    1200	     6.083
  40.520	        38	    1200	     6.164
  40.600	        34	    1200	     5.831
  40.680	        27	    1200	     5.196
  40.760	        31	    1200	     5.568
  40.840	        41	    1200	     6.403
  40.920	        39	    1200	     6.245
  41.000	        57	    1200	     7.550
  41.080	        80	    1200	     8.944
  41.160	        83	    1200	     9.110
  41.240	        93	    1200	     9.644
  41.320	        67	    1200	     8.185
  41.400	        60	    1200	     7.746
  41.480	        64	    1200	     8.000
  41.560	        56	    1200	     7.483
  41.640	        67	    1200	     8.185
  41.720	        51	    1200	     7.141
  41.800	        50	    1200	     7.071
  41.880	        43	    1200	     6.557
  41.960	        49	    1200	     7.000
  42.040	        38	    1200	     6.164
  42.120	        63	    1200	     7.937
  42.200	        72	    1200	     8.485
  42.280	        70	    1200	     8.367
  42.360	        57	    1200	     7.550
  42.440	        41	    1200	     6.403
  42.520	        26	    1200	     5.099
  42.600	        25	    1200	     5.000
  42.680	        26	    1200	     5.099
  42.760	        22	    1200	     4.690
  42.840	        27	    1200	     5.196
  42.920	        30	    1200	     5.477
  43.000	        25	    1200	     5.000
  43.080	        20	    1200	     4.472
  43.160	        21	    1200	     4.583
  43.240	        25	    1200	     5.000
  43.320	        29	    1200	     5.385
  43.400	        22	    1200	     4.690
  43.480	        28	    1200	     5.292
  43.560	        26	    1200	     5.099
  43.640	        49	    1200	     7.000
  43.720	        40	    1200	     6.325
  43.800	        48	    1200	     6.928
  43.880	        35	    1200	     5.916
  43.960	        30	    1200	     5.477
  44.040	        44	    1200	     6.633
  44.120	        35	    1200	     5.916
  44.200	        50	    1200	     7.071
  44.280	        58	    1200	     7.616
  44.360	        87	    1200	     9.327
  44.440	       139	    1200	    11.790
  44.520	       219	    1200	    14.799
  44.600	       287	    1200	    16.941
  44.680	       202	    1200	    14.213
  44.760	       152	    1200	    12.329
  44.840	        82	    1200	     9.055
  44.920	        92	    1200	     9.592
  45.000	        71	    1200	     8.426
  45.080	        65	    1200	     8.062
  45.160	        56	    1200	     7.483
  45.240	        64	    1200	     8.000
  45.320	        73	    1200	     8.544
  45.400	        73	    1200	     8.544
  45.480	        60	    1200	     7.746
  45.560	        56	    1200	     7.483
  45.640	        65	    1200	     8.062
  45.720	        72	    1200	     8.485
  45.800	        96	    1200	     9.798
  45.880	        73	    1200	     8.544
  45.960	        71	    1200	     8.426
  46.040	        81	    1200	     9.000
  46.120	       115	    1200	    10.724
  46.200	       153	    1200	    12.369
  46.280	       225	    1200	    15.000
  46.360	       321	    1200	    17.916
  46.440	       336	    1200	    18.330
  46.520	       345	    1200	    18.574
  46.600	       311	    1200	    17.635
  46.680	       205	    1200	    14.318
  46.760	       175	    1200	    13.229
  46.840	       164	    1200	    12.806
  46.920	       134	    1200	    11.576
  47.000	       110	    1200	    10.488
  47.080	        83	    1200	     9.110
  47.160	        47	    1200	     6.856
  47.240	        51	    1200	     7.141
  47.320	        40	    1200	     6.325
  47.400	        31	    1200	     5.568
  47.480	        32	    1200	     5.657
  47.560	        30	    1200	     5.477
  47.640	        29	    1200	     5.385
  47.720	        30	    1200	     5.477
  47.800	        30	    1200	     5.477
  47.880	        19	    1200	     4.359
  47.960	        22	    1200	     4.690
  48.040	        31	    1200	     5.568
  48.120	        39	    1200	     6.245
  48.200	        25	    1200	     5.000
  48.280	        21	    1200	     4.583
  48.360	        18	    1200	     4.243
  48.440	        18	    1200	     4.243
  48.520	        22	    1200	     4.690
  48.600	        14	    1200	     3.742
  48.680	        19	    1200	     4.359
  48.760	        14	    1200	     3.742
  48.840	        25	    1200	     5.000
  48.920	        20	    1200	     4.472
  49.000	        23	    1200	     4.796
  49.080	        13	    1200	     3.606
  49.160	        18	    1200	     4.243
  49.240	        14	    1200	     3.742
  49.320	        14	    1200	     3.742
  49.400	        13	    1200	     3.606
  49.480	        16	    1200	     4.000
  49.560	        21	    1200	     4.583
  49.640	        17	    1200	     4.123
  49.720	        16	    1200	     4.000
  49.800	        11	    1200	     3.317
  49.880	        21	    1200	     4.583
  49.960	        19	    1200	     4.359
  50.040	        11	    1200	     3.317
  50.120	        16	    1200	     4.000
  50.200	        18	    1200	     4.243
  50.280	        23	    1200	     4.796
  50.360	        22	    1200	     4.690
  50.440	        15	    1200	     3.873
  50.520	        12	    1200	     3.464
  50.600	        19	    1200	     4.359
  50.680	        13	    1200	     3.606
  50.760	        17	    1200	     4.123
  50.840	        17	    1200	     4.123
  50.920	        23	    1200	     4.796
  51.000	        12	    1200	     3.464
  51.080	        15	    1200	     3.873
  51.160	        24	    1200	     4.899
  51.240	        18	    1200	     4.243
  51.320	        21	    1200	     4.583
  51.400	        13	    1200	     3.606
  51.480	        20	    1200	     4.472
  51.560	        18	    1200	     4.243
  51.640	        19	    1200	     4.359
  51.720	        14	    1200	     3.742
  51.800	        14	    1200	     3.742
  51.880	        14	    1200	     3.742
  51.960	         9	    1200	     3.000
  52.040	        28	    1200	     5.292
  52.120	        15	    1200	     3.873
  52.200	        26	    1200	     5.099
  52.280	        26	    1200	     5.099
  52.360	        23	    1200	     4.796
  52.440	        30	    1200	     5.477
  52.520	        34	    1200	     5.831
  52.600	        23	    1200	     4.796
  52.680	        21	    1200	     4.583
  52.760	        20	    1200	     4.472
  52.840	        39	    1200	     6.245
  52.920	        29	    1200	     5.385
  53.000	        25	    1200	     5.000
  53.080	        31	    1200	     5.568
  53.160	        25	    1200	     5.000
  53.240	        29	    1200	     5.385
  53.320	        35	    1200	     5.916
  53.400	        35	    1200	     5.916
  53.480	        34	    1200	     5.831
  53.560	        22	    1200	     4.690
  53.640	        33	    1200	     5.745
  53.720	        21	    1200	     4.583
  53.800	        21	    1200	     4.583
  53.880	        16	    1200	     4.000
  53.960	        31	    1200	     5.568
  54.040	        17	    1200	     4.123
  54.120	        33	    1200	     5.745
  54.200	        32	    1200	     5.657
  54.280	        28	    1200	     5.292
  54.360	        35	    1200	     5.916
  54.440	        14	    1200	     3.742
  54.520	        19	    1200	     4.359
  54.600	        23	    1200	     4.796
  54.680	        28	    1200	     5.292
  54.760	        25	    1200	     5.000
  54.840	        23	    1200	     4.796
  54.920	        29	    1200	     5.385
  55.000	        29	    1200	     5.385
  55.080	        26	    1200	     5.099
  55.160	        31	    1200	     5.568
  55.240	        35	    1200	     5.916
  55.320	        38	    1200	     6.164
  55.400	        39	    1200	     6.245
  55.480	        44	    1200	     6.633
  55.560	        29	    1200	     5.385
  55.640	        38	    1200	     6.164
  55.720	        45	    1200	     6.708
  55.800	        39	    1200	     6.245
  55.880	        40	    1200	     6.325
  55.960	        32	    1200	     5.657
  56.040	        52	    1200	     7.211
  56.120	        36	    1200	     6.000
  56.200	        53	    1200	     7.280
  56.280	        63	    1200	     7.937
  56.360	        60	    1200	     7.746
  56.440	        47	    1200	     6.856
  56.520	        61	    1200	     7.810
  56.600	        40	    1200	     6.325
  56.680	        50	    1200	     7.071
  56.760	        47	    1200	     6.856
  56.840	        58	    1200	     7.616
  56.920	        60	    1200	     7.746
  57.000	        70	    1200	     8.367
  57.080	        83	    1200	     9.110
  57.160	        92	    1200	     9.592
  57.240	       126	    1200	    11.225
  57.320	       191	    1200	    13.820
  57.400	       258	    1200	    16.062
  57.480	       284	    1200	    16.852
  57.560	       285	    1200	    16.882
  57.640	       249	    1200	    15.780
  57.720	       213	    1200	    14.595
  57.800	       216	    1200	    14.697
  57.880	       187	    1200	    13.675
  57.960	       147	    1200	    12.124
  58.040	       121	    1200	    11.000
  58.120	       104	    1200	    10.198
  58.200	        95	    1200	     9.747
  58.280	        71	    1200	     8.426
  58.360	        60	    1200	     7.746
  58.440	        66	    1200	     8.124
  58.520	        73	    1200	     8.544
  58.600	        53	    1200	     7.280
  58.680	        60	    1200	     7.746
  58.760	        62	    1200	     7.874
  58.840	        53	    1200	     7.280
  58.920	        47	    1200	     6.856
  59.000	        35	    1200	     5.916
  59.080	        43	    1200	     6.557
  59.160	        40	    1200	     6.325
  59.240	        34	    1200	     5.831
  59.320	        38	    1200	     6.164
  59.400	        24	    1200	     4.899
  59.480	        32	    1200	     5.657
  59.560	        28	    1200	     5.292
  59.640	        32	    1200	     5.657
  59.720	        29	    1200	     5.385
  59.800	        30	    1200	     5.477
  59.880	        23	    1200	     4.796
  59.960	        35	    1200	     5.916
  60.040	        24	    1200	     4.899
  60.120	        43	    1200	     6.557
  60.200	        18	    1200	     4.243
  60.280	        33	    1200	     5.745
  60.360	        25	    1200	     5.000
  60.440	        31	    1200	     5.568
  60.520	        41	    1200	     6.403
  60.600	        36	    1200	     6.000
  60.680	        25	    1200	     5.000
  60.760	        22	    1200	     4.690
  60.840	        17	    1200	     4.123
  60.920	        17	    1200	     4.123
  61.000	        21	    1200	     4.583
  61.080	        25	    1200	     5.000
  61.160	        22	    1200	     4.690
  61.240	        26	    1200	     5.099
  61.320	        13	    1200	     3.606
  61.400	        17	    1200	     4.123
  61.480	        19	    1200	     4.359
  61.560	        25	    1200	     5.000
  61.640	        23	    1200	     4.796
  61.720	        20	    1200	     4.472
  61.800	        14	    1200	     3.742
  61.880	        21	    1200	     4.583
  61.960	        17	    1200	     4.123
  62.040	        13	    1200	     3.606
  62.120	        18	    1200	     4.243
  62.200	        21	    1200	     4.583
  62.280	        20	    1200	     4.472
  62.360	        19	    1200	     4.359
  62.440	        17	    1200	     4.123
  62.520	        21	    1200	     4.583
  62.600	        16	    1200	     4.000
  62.680	        20	    1200	     4.472
  62.760	        14	    1200	     3.742
  62.840	        16	    1200	     4.000
  62.920	        17	    1200	     4.123
  63.000	        19	    1200	     4.359
  63.080	        20	    1200	     4.472
  63.160	        24	    1200	     4.899
  63.240	        13	    1200	     3.606
  63.320	        20	    1200	     4.472
  63.400	        23	    1200	     4.796
  63.480	        23	    1200	     4.796
  63.560	        25	    1200	     5.000
  63.640	        29	    1200	     5.385
  63.720	        19	    1200	     4.359
  63.800	        30	    1200	     5.477
  63.880	        26	    1200	     5.099
  63.960	        21	    1200	     4.583
  64.040	        39	    1200	     6.245
  64.120	        27	    1200	     5.196
  64.200	        33	    1200	     5.745
  64.280	        35	    1200	     5.916
  64.360	        29	    1200	     5.385
  64.440	        31	    1200	     5.568
  64.520	        24	    1200	     4.899
  64.600	        32	    1200	     5.657
  64.680	        27	    1200	     5.196
  64.760	        37	    1200	     6.083
  64.840	        38	    1200	     6.164
  64.920	        43	    1200	     6.557
  65.000	        37	    1200	     6.083
  65.080	        46	    1200	     6.782
  65.160	        29	    1200	     5.385
  65.240	        43	    1200	     6.557
  65.320	        25	    1200	     5.000
  65.400	        23	    1200	     4.796
  65.480	        20	    1200	     4.472
  65.560	        25	    1200	     5.000
  65.640	        28	    1200	     5.292
  65.720	        21	    1200	     4.583
  65.800	        22	    1200	     4.690
  65.880	        38	    1200	     6.164
  65.960	        36	    1200	     6.000
  66.040	        40	    1200	     6.325
  66.120	        43	    1200	     6.557
  66.200	        51	    1200	     7.141
  66.280	        37	    1200	     6.083
  66.360	        41	    1200	     6.403
  66.440	        55	    1200	     7.416
  66.520	        49	    1200	     7.000
  66.600	        40	    1200	     6.325
  66.680	        45	    1200	     6.708
  66.760	        59	    1200	     7.681
  66.840	        45	    1200	     6.708
  66.920	        45	    1200	     6.708
  67.000	        48	    1200	     6.928
  67.080	        40	    1200	     6.325
  67.160	        53	    1200	     7.280
  67.240	        53	    1200	     7.280
  67.320	        67	    1200	     8.185
  67.400	        65	    1200	     8.062
  67.480	        72	    1200	     8.485
  67.560	        86	    1200	     9.274
  67.640	        88	    1200	     9.381
  67.720	       114	    1200	    10.677
  67.800	       132	    1200	    11.489
  67.880	       116	    1200	    10.770
  67.960	       111	    1200	    10.536
  68.040	       106	    1200	    10.296
  68.120	       110	    1200	    10.488
  68.200	        86	    1200	     9.274
  68.280	        66	    1200	     8.124
  68.360	        57	    1200	     7.550
  68.440	        62	    1200	     7.874
  68.520	        53	    1200	     7.280
  68.600	        54	    1200	     7.348
  68.680	        39	    1200	     6.245
  68.760	        37	    1200	     6.083
  68.840	        44	    1200	     6.633
  68.920	        32	    1200	     5.657
  69.000	        41	    1200	     6.403
  69.080	        33	    1200	     5.745
  69.160	        21	    1200	     4.583
  69.240	        22	    1200	     4.690
  69.320	        19	    1200	     4.359
  69.400	        22	    1200	     4.690
  69.480	        24	    1200	     4.899
  69.560	        22	    1200	     4.690
  69.640	        17	    1200	     4.123
  69.720	         9	    1200	     3.000
  69.800	        18	    1200	     4.243
  69.880	        13	    1200	     3.606
  69.960	        14	    1200	     3.742
  70.040	        14	    1200	     3.742
  70.120	        12	    1200	     3.464
  70.200	        10	    1200	     3.162
  70.280	        13	    1200	     3.606
  70.360	        15	    1200	     3.873
  70.440	        17	    1200	     4.123
  70.520	        16	    1200	     4.000
  70.600	        17	    1200	     4.123
  70.680	         9	    1200	     3.000
  70.760	        23	    1200	     4.796
  70.840	        20	    1200	     4.472
  70.920	        14	    1200	     3.742
  71.000	        16	    1200	     4.000
  71.080	        19	    1200	     4.359
  71.160	        17	    1200	     4.123
  71.240	        25	    1200	     5.000
  71.320	        18	    1200	     4.243
  71.400	        24	    1200	     4.899
  71.480	        17	    1200	     4.123
  71.560	        15	    1200	     3.873
  71.640	        21	    1200	     4.583
  71.720	        18	    1200	     4.243
  71.800	        11	    1200	     3.317
  71.880	        13	    1200	     3.606
  71.960	        27	    1200	     5.196
  72.040	        20	    1200	     4.472
  72.120	        15	    1200	     3.873
  72.200	        22	    1200	     4.690
  72.280	        17	    1200	     4.123
  72.360	        19	    1200	     4.359
  72.440	        29	    1200	     5.385
  72.520	        16	    1200	     4.000
  72.600	        18	    1200	     4.243
  72.680	        22	    1200	     4.690
  72.760	        26	    1200	     5.099
  72.840	        18	    1200	     4.243
  72.920	        17	    1200	     4.123
  73.000	        15	    1200	     3.873
  73.080	        26	    1200	     5.099
  73.160	        18	    1200	     4.243
  73.240	        20	    1200	     4.472
  73.320	        30	    1200	     5.477
  73.400	        26	    1200	     5.099
  73.480	        28	    1200	     5.292
  73.560	        26	    1200	     5.099
  73.640	        20	    1200	     4.472
  73.720	        15	    1200	     3.873
  73.800	        24	    1200	     4.899
  73.880	        24	    1200	     4.899
  73.960	        18	    1200	     4.243
  74.040	        27	    1200	     5.196
  74.120	        23	    1200	     4.796
  74.200	        34	    1200	     5.831
  74.280	        27	    1200	     5.196
  74.360	        23	    1200	     4.796
  74.440	        21	    1200	     4.583
  74.520	        30	    1200	     5.477
  74.600	        15	    1200	     3.873
  74.680	        26	    1200	     5.099
  74.760	        22	    1200	     4.690
  74.840	        16	    1200	     4.000
  74.920	        23	    1200	     4.796
  75.000	        29	    1200	     5.385
  75.080	        22	    1200	     4.690
  75.160	        32	    1200	     5.657
  75.240	        24	    1200	     4.899
  75.320	        20	    1200	     4.472
  75.400	        13	    1200	     3.606
  75.480	        24	    1200	     4.899
  75.560	        32	    1200	     5.657
  75.640	        21	    1200	     4.583
  75.720	        21	    1200	     4.583
  75.800	        22	    1200	     4.690
  75.880	        26	    1200	     5.099
  75.960	        27	    1200	     5.196
  76.040	        26	    1200	     5.099
  76.120	        25	    1200	     5.000
  76.200	        36	    1200	     6.000
  76.280	        24	    1200	     4.899
  76.360	        34	    1200	     5.831
  76.440	        34	    1200	     5.831
  76.520	        28	    1200	     5.292
  76.600	        41	    1200	     6.403
  76.680	        33	    1200	     5.745
  76.760	        59	    1200	     7.681
  76.840	        62	    1200	     7.874
  76.920	        61	    1200	     7.810
  77.000	        66	    1200	     8.124
  77.080	        80	    1200	     8.944
  77.160	        77	    1200	     8.775
  77.240	        99	    1200	     9.950
  77.320	        86	    1200	     9.274
  77.400	        94	    1200	     9.695
  77.480	        80	    1200	     8.944
  77.560	        83	    1200	     9.110
  77.640	        61	    1200	     7.810
  77.720	        87	    1200	     9.327
  77.800	        65	    1200	     8.062
  77.880	        48	    1200	     6.928
  77.960	        44	    1200	     6.633
  78.040	        54	    1200	     7.348
  78.120	        47	    1200	     6.856
  78.200	        43	    1200	     6.557
  78.280	        38	    1200	     6.164
  78.360	        35	    1200	     5.916
  78.440	        35	    1200	     5.916
  78.520	        33	    1200	     5.745
  78.600	        30	    1200	     5.477
  78.680	        39	    1200	     6.245
  78.760	        24	    1200	     4.899
  78.840	        39	    1200	     6.245
  78.920	        30	    1200	     5.477
  79.000	        25	    1200	     5.000
  79.080	        21	    1200	     4.583
  79.160	        26	    1200	     5.099
  79.240	        21	    1200	     4.583
  79.320	        18	    1200	     4.243
  79.400	        13	    1200	     3.606
  79.480	        19	    1200	     4.359
  79.560	        23	    1200	     4.796
  79.640	        23	    1200	     4.796
  79.720	        21	    1200	     4.583
  79.800	        30	    1200	     5.477
  79.880	        16	    1200	     4.000
  79.960	        21	    1200	     4.583
  80.040	        23	    1200	     4.796
  80.120	        21	    1200	     4.583
  80.200	        21	    1200	     4.583
  80.280	        21	    1200	     4.583
  80.360	        14	    1200	     3.742
  80.440	        20	    1200	     4.472
  80.520	        20	    1200	     4.472
  80.600	        13	    1200	     3.606
  80.680	        26	    1200	     5.099
  80.760	        24	    1200	     4.899
  80.840	        20	    1200	     4.472
  80.920	        17	    1200	     4.123
  81.000	        22	    1200	     4.690
  81.080	        19	    1200	     4.359
  81.160	        18	    1200	     4.243
  81.240	        20	    1200	     4.472
  81.320	        26	    1200	     5.099
  81.400	        22	    1200	     4.690
  81.480	        22	    1200	     4.690
  81.560	        28	    1200	     5.292
  81.640	        22	    1200	     4.690
  81.720	        29	    1200	     5.385
  81.800	        32	    1200	     5.657
  81.880	        32	    1200	     5.657
  81.960	        40	    1200	     6.325
  82.040	        36	    1200	     6.000
  82.120	        43	    1200	     6.557
  82.200	        52	    1200	     7.211
  82.280	        47	    1200	     6.856
  82.360	        63	    1200	     7.937
  82.440	        62	    1200	     7.874
  82.520	        44	    1200	     6.633
  82.600	        71	    1200	     8.426
  82.680	        50	    1200	     7.071
  82.760	        38	    1200	     6.164
  82.840	        43	    1200	     6.557
  82.920	        50	    1200	     7.071
  83.000	        31	    1200	     5.568
  83.080	        34	    1200	     5.831
  83.160	        28	    1200	     5.292
  83.240	        31	    1200	     5.568
  83.320	        29	    1200	     5.385
  83.400	        38	    1200	     6.164
  83.480	        19	    1200	     4.359
  83.560	        33	    1200	     5.745
  83.640	        30	    1200	     5.477
  83.720	        32	    1200	     5.657
  83.800	        12	    1200	     3.464
  83.880	        27	    1200	     5.196
  83.960	        24	    1200	     4.899
  84.040	        27	    1200	     5.196
  84.120	        23	    1200	     4.796
  84.200	        27	    1200	     5.196
  84.280	        15	    1200	     3.873
  84.360	        22	    1200	     4.690
  84.440	        33	    1200	     5.745
  84.520	        21	    1200	     4.583
  84.600	        26	    1200	     5.099
  84.680	        34	    1200	     5.831
  84.760	        33	    1200	     5.745
  84.840	        40	    1200	     6.325
  84.920	        26	    1200	     5.099
  85.000	        18	    1200	     4.243
  85.080	        37	    1200	     6.083
  85.160	        32	    1200	     5.657
  85.240	        30	    1200	     5.477
  85.320	        27	    1200	     5.196
  85.400	        28	    1200	     5.292
  85.480	        23	    1200	     4.796
  85.560	        34	    1200	     5.831
  85.640	        40	    1200	     6.325
  85.720	        35	    1200	     5.916
  85.800	        35	    1200	     5.916
  85.880	        27	    1200	     5.196
  85.960	        33	    1200	     5.745
  86.040	        29	    1200	     5.385
  86.120	        37	    1200	     6.083
  86.200	        36	    1200	     6.000
  86.280	        32	    1200	     5.657
  86.360	        29	    1200	     5.385
  86.440	        26	    1200	     5.099
  86.520	        26	    1200	     5.099
  86.600	        25	    1200	     5.000
  86.680	        23	    1200	     4.796
  86.760	        27	    1200	     5.196
  86.840	        27	    1200	     5.196
  86.920	        22	    1200	     4.690
  87.000	        26	    1200	     5.099
  87.080	        32	    1200	     5.657
  87.160	        18	    1200	     4.243
  87.240	        14	    1200	     3.742
  87.320	        22	    1200	     4.690
  87.400	        21	    1200	     4.583
  87.480	        18	    1200	     4.243
  87.560	        16	    1200	     4.000
  87.640	        18	    1200	     4.243
  87.720	        29	    1200	     5.385
  87.800	        20	    1200	     4.472
  87.880	        15	    1200	     3.873
  87.960	        20	    1200	     4.472
  88.040	        17	    1200	     4.123
  88.120	        14	    1200	     3.742
  88.200	        18	    1200	     4.243
  88.280	        26	    1200	     5.099
  88.360	        19	    1200	     4.359
  88.440	        20	    1200	     4.472
  88.520	        22	    1200	     4.690
  88.600	        21	    1200	     4.583
  88.680	        22	    1200	     4.690
  88.760	        15	    1200	     3.873
  88.840	        22	    1200	     4.690
  88.920	        17	    1200	     4.123
  89.000	        24	    1200	     4.899
  89.080	        16	    1200	     4.000
  89.160	        23	    1200	     4.796
  89.240	        25	    1200	     5.000
  89.320	        14	    1200	     3.742
  89.400	        19	    1200	     4.359
  89.480	        21	    1200	     4.583
  89.560	        22	    1200	     4.690
  89.640	        12	    1200	     3.464
  89.720	        11	    1200	     3.317
  89.800	        10	    1200	     3.162
  89.880	        25	    1200	     5.000
  89.960	        21	    1200	     4.583
  90.000	        18	    1200	     4.243