File: Ex Situ XRD/STF8 850C 30H2 4Hr.txt
         ID:

    Comment:

Scan Type: Normal
Start Angle: 15 deg.
Stop Angle: 90 deg.
Num Points: 3751
Step Size: 0.02 deg.
Datafile Res: 1600
Scan Rate: 1.000000
Scan Mode: Continuous
Wavelength: 1.540562

Diffractometer Optics:
		Detector:
			 Type: Fixed Slits
			 X2 Configuration: No
		Tube:
			 Type: Fixed Slits
			 X2 Configuration: No

Axis[0]
	 Selected   : no
	 Iterative  : no
	 Start Angle: 0.000000
	 Stop Angle : 0.000000
	 Step Size  : 0.000000
	 Oscillating: no

Axis[1]
	 Selected   : no
	 Iterative  : no
	 Start Angle: 0.000000
	 Stop Angle : 0.000000
	 Step Size  : 0.000000
	 Oscillating: no

Axis[2]
	 Selected   : no
	 Iterative  : no
	 Start Angle: 0.000000
	 Stop Angle : 0.000000
	 Step Size  : 0.000000
	 Oscillating: no

Axis[3]
	 Selected   : no
	 Iterative  : no
	 Start Angle: 0.000000
	 Stop Angle : 0.000000
	 Step Size  : 0.000000
	 Oscillating: no

Axis[4]
	 Selected   : no
	 Iterative  : no
	 Start Angle: 0.000000
	 Stop Angle : 0.000000
	 Step Size  : 0.000000
	 Oscillating: no

Axis[5]
	 Selected   : no
	 Iterative  : no
	 Start Angle: 0.000000
	 Stop Angle : 0.000000
	 Step Size  : 0.000000
	 Oscillating: no

Axis[6]
	 Selected   : no
	 Iterative  : no
	 Start Angle: 0.000000
	 Stop Angle : 0.000000
	 Step Size  : 0.000000
	 Oscillating: no

Axis[7]
	 Selected   : no
	 Iterative  : no
	 Start Angle: 0.000000
	 Stop Angle : 0.000000
	 Step Size  : 0.000000
	 Oscillating: no

Axis[8]
	 Selected   : no
	 Iterative  : no
	 Start Angle: 0.000000
	 Stop Angle : 0.000000
	 Step Size  : 0.000000
	 Oscillating: no

Axis[9]
	 Selected   : no
	 Iterative  : no
	 Start Angle: 0.000000
	 Stop Angle : 0.000000
	 Step Size  : 0.000000
	 Oscillating: no

	   Deg.    Counts 	   Time 	    ESD

Range 0
  15.000	       117	    1200	    10.817
  15.080	       114	    1200	    10.677
  15.160	       114	    1200	    10.677
  15.240	       118	    1200	    10.863
  15.320	       113	    1200	    10.630
  15.400	       110	    1200	    10.488
  15.480	        93	    1200	     9.644
  15.560	       102	    1200	    10.100
  15.640	       108	    1200	    10.392
  15.720	       110	    1200	    10.488
  15.800	       117	    1200	    10.817
  15.880	       115	    1200	    10.724
  15.960	       110	    1200	    10.488
  16.040	       116	    1200	    10.770
  16.120	        98	    1200	     9.899
  16.200	       114	    1200	    10.677
  16.280	        81	    1200	     9.000
  16.360	       119	    1200	    10.909
  16.440	       101	    1200	    10.050
  16.520	       118	    1200	    10.863
  16.600	       117	    1200	    10.817
  16.680	        93	    1200	     9.644
  16.760	        95	    1200	     9.747
  16.840	       103	    1200	    10.149
  16.920	        99	    1200	     9.950
  17.000	       111	    1200	    10.536
  17.080	       113	    1200	    10.630
  17.160	       120	    1200	    10.954
  17.240	       114	    1200	    10.677
  17.320	        88	    1200	     9.381
  17.400	        92	    1200	     9.592
  17.480	        88	    1200	     9.381
  17.560	       113	    1200	    10.630
  17.640	        93	    1200	     9.644
  17.720	        96	    1200	     9.798
  17.800	       116	    1200	    10.770
  17.880	       101	    1200	    10.050
  17.960	       115	    1200	    10.724
  18.040	       109	    1200	    10.440
  18.120	        94	    1200	     9.695
  18.200	       111	    1200	    10.536
  18.280	       115	    1200	    10.724
  18.360	        84	    1200	     9.165
  18.440	        99	    1200	     9.950
  18.520	        88	    1200	     9.381
  18.600	       128	    1200	    11.314
  18.680	       100	    1200	    10.000
  18.760	       121	    1200	    11.000
  18.840	        97	    1200	     9.849
  18.920	       110	    1200	    10.488
  19.000	        90	    1200	     9.487
  19.080	       114	    1200	    10.677
  19.160	        77	    1200	     8.775
  19.240	       107	    1200	    10.344
  19.320	       116	    1200	    10.770
  19.400	       112	    1200	    10.583
  19.480	       107	    1200	    10.344
  19.560	        87	    1200	     9.327
  19.640	       100	    1200	    10.000
  19.720	       107	    1200	    10.344
  19.800	        91	    1200	     9.539
  19.880	        99	    1200	     9.950
  19.960	       104	    1200	    10.198
  20.040	        82	    1200	     9.055
  20.120	        73	    1200	     8.544
  20.200	        94	    1200	     9.695
  20.280	       104	    1200	    10.198
  20.360	        92	    1200	     9.592
  20.440	       105	    1200	    10.247
  20.520	        86	    1200	     9.274
  20.600	        98	    1200	     9.899
  20.680	        85	    1200	     9.220
  20.760	        88	    1200	     9.381
  20.840	        97	    1200	     9.849
  20.920	       102	    1200	    10.100
  21.000	        92	    1200	     9.592
  21.080	        99	    1200	     9.950
  21.160	        80	    1200	     8.944
  21.240	       110	    1200	    10.488
  21.320	        85	    1200	     9.220
  21.400	       102	    1200	    10.100
  21.480	        94	    1200	     9.695
  21.560	        85	    1200	     9.220
  21.640	        96	    1200	     9.798
  21.720	        90	    1200	     9.487
  21.800	        80	    1200	     8.944
  21.880	        88	    1200	     9.381
  21.960	        85	    1200	     9.220
  22.040	        93	    1200	     9.644
  22.120	        83	    1200	     9.110
  22.200	        84	    1200	     9.165
  22.280	        91	    1200	     9.539
  22.360	       121	    1200	    11.000
  22.440	       120	    1200	    10.954
  22.520	       109	    1200	    10.440
  22.600	       107	    1200	    10.344
  22.680	        78	    1200	     8.832
  22.760	       100	    1200	    10.000
  22.840	       110	    1200	    10.488
  22.920	        92	    1200	     9.592
  23.000	       102	    1200	    10.100
  23.080	        79	    1200	     8.888
  23.160	        85	    1200	     9.220
  23.240	       102	    1200	    10.100
  23.320	        80	    1200	     8.944
  23.400	        85	    1200	     9.220
  23.480	        92	    1200	     9.592
  23.560	        76	    1200	     8.718
  23.640	        98	    1200	     9.899
  23.720	        87	    1200	     9.327
  23.800	        80	    1200	     8.944
  23.880	        68	    1200	     8.246
  23.960	        65	    1200	     8.062
  24.040	        67	    1200	     8.185
  24.120	        92	    1200	     9.592
  24.200	        75	    1200	     8.660
  24.280	        81	    1200	     9.000
  24.360	        91	    1200	     9.539
  24.440	        69	    1200	     8.307
  24.520	        94	    1200	     9.695
  24.600	        78	    1200	     8.832
  24.680	        82	    1200	     9.055
  24.760	        68	    1200	     8.246
  24.840	        74	    1200	     8.602
  24.920	        70	    1200	     8.367
  25.000	        77	    1200	     8.775
  25.080	        70	    1200	     8.367
  25.160	        77	    1200	     8.775
  25.240	        76	    1200	     8.718
  25.320	        65	    1200	     8.062
  25.400	        71	    1200	     8.426
  25.480	        65	    1200	     8.062
  25.560	        65	    1200	     8.062
  25.640	        62	    1200	     7.874
  25.720	        62	    1200	     7.874
  25.800	        65	    1200	     8.062
  25.880	        73	    1200	     8.544
  25.960	        80	    1200	     8.944
  26.040	        71	    1200	     8.426
  26.120	        77	    1200	     8.775
  26.200	        77	    1200	     8.775
  26.280	        79	    1200	     8.888
  26.360	        78	    1200	     8.832
  26.440	        65	    1200	     8.062
  26.520	        52	    1200	     7.211
  26.600	        62	    1200	     7.874
  26.680	        62	    1200	     7.874
  26.760	        60	    1200	     7.746
  26.840	        50	    1200	     7.071
  26.920	        60	    1200	     7.746
  27.000	        47	    1200	     6.856
  27.080	        54	    1200	     7.348
  27.160	        59	    1200	     7.681
  27.240	        59	    1200	     7.681
  27.320	        47	    1200	     6.856
  27.400	        47	    1200	     6.856
  27.480	        57	    1200	     7.550
  27.560	        66	    1200	     8.124
  27.640	        55	    1200	     7.416
  27.720	        54	    1200	     7.348
  27.800	        46	    1200	     6.782
  27.880	        53	    1200	     7.280
  27.960	        52	    1200	     7.211
  28.040	        55	    1200	     7.416
  28.120	        44	    1200	     6.633
  28.200	        48	    1200	     6.928
  28.280	        42	    1200	     6.481
  28.360	        45	    1200	     6.708
  28.440	        55	    1200	     7.416
  28.520	        49	    1200	     7.000
  28.600	        56	    1200	     7.483
  28.680	        53	    1200	     7.280
  28.760	        62	    1200	     7.874
  28.840	        69	    1200	     8.307
  28.920	        55	    1200	     7.416
  29.000	        58	    1200	     7.616
  29.080	        68	    1200	     8.246
  29.160	        41	    1200	     6.403
  29.240	        33	    1200	     5.745
  29.320	        53	    1200	     7.280
  29.400	        39	    1200	     6.245
  29.480	        50	    1200	     7.071
  29.560	        49	    1200	     7.000
  29.640	        45	    1200	     6.708
  29.720	        52	    1200	     7.211
  29.800	        46	    1200	     6.782
  29.880	        40	    1200	     6.325
  29.960	        42	    1200	     6.481
  30.040	        48	    1200	     6.928
  30.120	        48	    1200	     6.928
  30.200	        46	    1200	     6.782
  30.280	        33	    1200	     5.745
  30.360	        49	    1200	     7.000
  30.440	        42	    1200	     6.481
  30.520	        42	    1200	     6.481
  30.600	        54	    1200	     7.348
  30.680	        53	    1200	     7.280
  30.760	        39	    1200	     6.245
  30.840	        58	    1200	     7.616
  30.920	        61	    1200	     7.810
  31.000	        54	    1200	     7.348
  31.080	        62	    1200	     7.874
  31.160	        83	    1200	     9.110
  31.240	       168	    1200	    12.961
  31.320	       279	    1200	    16.703
  31.400	       325	    1200	    18.028
  31.480	       259	    1200	    16.093
  31.560	       174	    1200	    13.191
  31.640	       192	    1200	    13.856
  31.720	       153	    1200	    12.369
  31.800	       253	    1200	    15.906
  31.880	       533	    1200	    23.087
  31.960	       943	    1200	    30.708
  32.040	      1297	    1200	    36.014
  32.120	      1392	    1200	    37.310
  32.200	      1181	    1200	    34.366
  32.280	       715	    1200	    26.739
  32.360	       372	    1200	    19.287
  32.440	       205	    1200	    14.318
  32.520	       129	    1200	    11.358
  32.600	        92	    1200	     9.592
  32.680	        74	    1200	     8.602
  32.760	        57	    1200	     7.550
  32.840	        70	    1200	     8.367
  32.920	        69	    1200	     8.307
  33.000	        46	    1200	     6.782
  33.080	        54	    1200	     7.348
  33.160	        44	    1200	     6.633
  33.240	        43	    1200	     6.557
  33.320	        42	    1200	     6.481
  33.400	        49	    1200	     7.000
  33.480	        40	    1200	     6.325
  33.560	        51	    1200	     7.141
  33.640	        48	    1200	     6.928
  33.720	        43	    1200	     6.557
  33.800	        32	    1200	     5.657
  33.880	        43	    1200	     6.557
  33.960	        34	    1200	     5.831
  34.040	        38	    1200	     6.164
  34.120	        40	    1200	     6.325
  34.200	        47	    1200	     6.856
  34.280	        39	    1200	     6.245
  34.360	        34	    1200	     5.831
  34.440	        41	    1200	     6.403
  34.520	        35	    1200	     5.916
  34.600	        27	    1200	     5.196
  34.680	        37	    1200	     6.083
  34.760	        35	    1200	     5.916
  34.840	        24	    1200	     4.899
  34.920	        32	    1200	     5.657
  35.000	        33	    1200	     5.745
  35.080	        34	    1200	     5.831
  35.160	        27	    1200	     5.196
  35.240	        28	    1200	     5.292
  35.320	        29	    1200	     5.385
  35.400	        36	    1200	     6.000
  35.480	        30	    1200	     5.477
  35.560	        39	    1200	     6.245
  35.640	        22	    1200	     4.690
  35.720	        30	    1200	     5.477
  35.800	        26	    1200	     5.099
  35.880	        33	    1200	     5.745
  35.960	        31	    1200	     5.568
  36.040	        29	    1200	     5.385
  36.120	        23	    1200	     4.796
  36.200	        26	    1200	     5.099
  36.280	        35	    1200	     5.916
  36.360	        32	    1200	     5.657
  36.440	        23	    1200	     4.796
  36.520	        26	    1200	     5.099
  36.600	        25	    1200	     5.000
  36.680	        20	    1200	     4.472
  36.760	        28	    1200	     5.292
  36.840	        23	    1200	     4.796
  36.920	        26	    1200	     5.099
  37.000	        34	    1200	     5.831
  37.080	        16	    1200	     4.000
  37.160	        31	    1200	     5.568
  37.240	        24	    1200	     4.899
  37.320	        22	    1200	     4.690
  37.400	        18	    1200	     4.243
  37.480	        28	    1200	     5.292
  37.560	        18	    1200	     4.243
  37.640	        28	    1200	     5.292
  37.720	        27	    1200	     5.196
  37.800	        27	    1200	     5.196
  37.880	        21	    1200	     4.583
  37.960	        23	    1200	     4.796
  38.040	        30	    1200	     5.477
  38.120	        29	    1200	     5.385
  38.200	        26	    1200	     5.099
  38.280	        26	    1200	     5.099
  38.360	        21	    1200	     4.583
  38.440	        26	    1200	     5.099
  38.520	        24	    1200	     4.899
  38.600	        26	    1200	     5.099
  38.680	        23	    1200	     4.796
  38.760	        20	    1200	     4.472
  38.840	        35	    1200	     5.916
  38.920	        41	    1200	     6.403
  39.000	        54	    1200	     7.348
  39.080	        43	    1200	     6.557
  39.160	        50	    1200	     7.071
  39.240	        55	    1200	     7.416
  39.320	        50	    1200	     7.071
  39.400	        62	    1200	     7.874
  39.480	        95	    1200	     9.747
  39.560	       139	    1200	    11.790
  39.640	       206	    1200	    14.353
  39.720	       193	    1200	    13.892
  39.800	       156	    1200	    12.490
  39.880	        74	    1200	     8.602
  39.960	        58	    1200	     7.616
  40.040	        50	    1200	     7.071
  40.120	        37	    1200	     6.083
  40.200	        29	    1200	     5.385
  40.280	        27	    1200	     5.196
  40.360	        36	    1200	     6.000
  40.440	        37	    1200	     6.083
  40.520	        32	    1200	     5.657
  40.600	        26	    1200	     5.099
  40.680	        30	    1200	     5.477
  40.760	        33	    1200	     5.745
  40.840	        46	    1200	     6.782
  40.920	        69	    1200	     8.307
  41.000	        67	    1200	     8.185
  41.080	        88	    1200	     9.381
  41.160	       102	    1200	    10.100
  41.240	       105	    1200	    10.247
  41.320	        88	    1200	     9.381
  41.400	        56	    1200	     7.483
  41.480	        36	    1200	     6.000
  41.560	        26	    1200	     5.099
  41.640	        34	    1200	     5.831
  41.720	        24	    1200	     4.899
  41.800	        14	    1200	     3.742
  41.880	        16	    1200	     4.000
  41.960	        32	    1200	     5.657
  42.040	        13	    1200	     3.606
  42.120	        27	    1200	     5.196
  42.200	        20	    1200	     4.472
  42.280	        18	    1200	     4.243
  42.360	        24	    1200	     4.899
  42.440	        22	    1200	     4.690
  42.520	        29	    1200	     5.385
  42.600	        22	    1200	     4.690
  42.680	        20	    1200	     4.472
  42.760	        12	    1200	     3.464
  42.840	        19	    1200	     4.359
  42.920	        14	    1200	     3.742
  43.000	        17	    1200	     4.123
  43.080	        20	    1200	     4.472
  43.160	        16	    1200	     4.000
  43.240	        17	    1200	     4.123
  43.320	        22	    1200	     4.690
  43.400	        31	    1200	     5.568
  43.480	        27	    1200	     5.196
  43.560	        44	    1200	     6.633
  43.640	        36	    1200	     6.000
  43.720	        42	    1200	     6.481
  43.800	        32	    1200	     5.657
  43.880	        21	    1200	     4.583
  43.960	        34	    1200	     5.831
  44.040	        31	    1200	     5.568
  44.120	        26	    1200	     5.099
  44.200	        34	    1200	     5.831
  44.280	        44	    1200	     6.633
  44.360	        60	    1200	     7.746
  44.440	        90	    1200	     9.487
  44.520	        64	    1200	     8.000
  44.600	        47	    1200	     6.856
  44.680	        43	    1200	     6.557
  44.760	        52	    1200	     7.211
  44.840	        32	    1200	     5.657
  44.920	        29	    1200	     5.385
  45.000	        18	    1200	     4.243
  45.080	        32	    1200	     5.657
  45.160	        33	    1200	     5.745
  45.240	        47	    1200	     6.856
  45.320	        48	    1200	     6.928
  45.400	        61	    1200	     7.810
  45.480	        56	    1200	     7.483
  45.560	        85	    1200	     9.220
  45.640	       134	    1200	    11.576
  45.720	       155	    1200	    12.450
  45.800	       180	    1200	    13.416
  45.880	       191	    1200	    13.820
  45.960	       255	    1200	    15.969
  46.040	       314	    1200	    17.720
  46.120	       416	    1200	    20.396
  46.200	       438	    1200	    20.928
  46.280	       408	    1200	    20.199
  46.360	       296	    1200	    17.205
  46.440	       240	    1200	    15.492
  46.520	       117	    1200	    10.817
  46.600	       124	    1200	    11.136
  46.680	        74	    1200	     8.602
  46.760	        48	    1200	     6.928
  46.840	        42	    1200	     6.481
  46.920	        44	    1200	     6.633
  47.000	        33	    1200	     5.745
  47.080	        40	    1200	     6.325
  47.160	        48	    1200	     6.928
  47.240	        34	    1200	     5.831
  47.320	        44	    1200	     6.633
  47.400	        49	    1200	     7.000
  47.480	        24	    1200	     4.899
  47.560	        36	    1200	     6.000
  47.640	        29	    1200	     5.385
  47.720	        25	    1200	     5.000
  47.800	        38	    1200	     6.164
  47.880	        25	    1200	     5.000
  47.960	        26	    1200	     5.099
  48.040	        25	    1200	     5.000
  48.120	        25	    1200	     5.000
  48.200	        28	    1200	     5.292
  48.280	        15	    1200	     3.873
  48.360	        18	    1200	     4.243
  48.440	        23	    1200	     4.796
  48.520	        18	    1200	     4.243
  48.600	        19	    1200	     4.359
  48.680	        20	    1200	     4.472
  48.760	        16	    1200	     4.000
  48.840	         7	    1200	     2.646
  48.920	        22	    1200	     4.690
  49.000	        23	    1200	     4.796
  49.080	        12	    1200	     3.464
  49.160	        22	    1200	     4.690
  49.240	        20	    1200	     4.472
  49.320	        11	    1200	     3.317
  49.400	        18	    1200	     4.243
  49.480	        19	    1200	     4.359
  49.560	        21	    1200	     4.583
  49.640	        22	    1200	     4.690
  49.720	        14	    1200	     3.742
  49.800	        14	    1200	     3.742
  49.880	        15	    1200	     3.873
  49.960	        12	    1200	     3.464
  50.040	        17	    1200	     4.123
  50.120	        17	    1200	     4.123
  50.200	        19	    1200	     4.359
  50.280	        18	    1200	     4.243
  50.360	        12	    1200	     3.464
  50.440	        18	    1200	     4.243
  50.520	        25	    1200	     5.000
  50.600	        16	    1200	     4.000
  50.680	        11	    1200	     3.317
  50.760	        11	    1200	     3.317
  50.840	        20	    1200	     4.472
  50.920	         8	    1200	     2.828
  51.000	        15	    1200	     3.873
  51.080	        24	    1200	     4.899
  51.160	        25	    1200	     5.000
  51.240	        26	    1200	     5.099
  51.320	        18	    1200	     4.243
  51.400	        22	    1200	     4.690
  51.480	        26	    1200	     5.099
  51.560	        21	    1200	     4.583
  51.640	        17	    1200	     4.123
  51.720	        27	    1200	     5.196
  51.800	        23	    1200	     4.796
  51.880	        29	    1200	     5.385
  51.960	        53	    1200	     7.280
  52.040	        39	    1200	     6.245
  52.120	        32	    1200	     5.657
  52.200	        30	    1200	     5.477
  52.280	        22	    1200	     4.690
  52.360	        18	    1200	     4.243
  52.440	        23	    1200	     4.796
  52.520	        15	    1200	     3.873
  52.600	        13	    1200	     3.606
  52.680	        26	    1200	     5.099
  52.760	        20	    1200	     4.472
  52.840	        16	    1200	     4.000
  52.920	        17	    1200	     4.123
  53.000	        15	    1200	     3.873
  53.080	        22	    1200	     4.690
  53.160	        26	    1200	     5.099
  53.240	        24	    1200	     4.899
  53.320	        22	    1200	     4.690
  53.400	        22	    1200	     4.690
  53.480	        13	    1200	     3.606
  53.560	        15	    1200	     3.873
  53.640	         6	    1200	     2.449
  53.720	        18	    1200	     4.243
  53.800	        21	    1200	     4.583
  53.880	        14	    1200	     3.742
  53.960	        18	    1200	     4.243
  54.040	        14	    1200	     3.742
  54.120	         7	    1200	     2.646
  54.200	        18	    1200	     4.243
  54.280	        16	    1200	     4.000
  54.360	        15	    1200	     3.873
  54.440	        27	    1200	     5.196
  54.520	        10	    1200	     3.162
  54.600	        20	    1200	     4.472
  54.680	        15	    1200	     3.873
  54.760	        21	    1200	     4.583
  54.840	        25	    1200	     5.000
  54.920	        25	    1200	     5.000
  55.000	        24	    1200	     4.899
  55.080	        18	    1200	     4.243
  55.160	        24	    1200	     4.899
  55.240	        25	    1200	     5.000
  55.320	        43	    1200	     6.557
  55.400	        31	    1200	     5.568
  55.480	        53	    1200	     7.280
  55.560	        37	    1200	     6.083
  55.640	        31	    1200	     5.568
  55.720	        23	    1200	     4.796
  55.800	        29	    1200	     5.385
  55.880	        30	    1200	     5.477
  55.960	        30	    1200	     5.477
  56.040	        29	    1200	     5.385
  56.120	        27	    1200	     5.196
  56.200	        26	    1200	     5.099
  56.280	        35	    1200	     5.916
  56.360	        50	    1200	     7.071
  56.440	        73	    1200	     8.544
  56.520	        83	    1200	     9.110
  56.600	        77	    1200	     8.775
  56.680	        74	    1200	     8.602
  56.760	        72	    1200	     8.485
  56.840	        87	    1200	     9.327
  56.920	       108	    1200	    10.392
  57.000	       112	    1200	    10.583
  57.080	       169	    1200	    13.000
  57.160	       223	    1200	    14.933
  57.240	       282	    1200	    16.793
  57.320	       396	    1200	    19.900
  57.400	       467	    1200	    21.610
  57.480	       473	    1200	    21.749
  57.560	       408	    1200	    20.199
  57.640	       262	    1200	    16.186
  57.720	       213	    1200	    14.595
  57.800	       159	    1200	    12.610
  57.880	        88	    1200	     9.381
  57.960	        80	    1200	     8.944
  58.040	        53	    1200	     7.280
  58.120	        41	    1200	     6.403
  58.200	        45	    1200	     6.708
  58.280	        32	    1200	     5.657
  58.360	        38	    1200	     6.164
  58.440	        42	    1200	     6.481
  58.520	        28	    1200	     5.292
  58.600	        32	    1200	     5.657
  58.680	        22	    1200	     4.690
  58.760	        31	    1200	     5.568
  58.840	        27	    1200	     5.196
  58.920	        17	    1200	     4.123
  59.000	        31	    1200	     5.568
  59.080	        29	    1200	     5.385
  59.160	        27	    1200	     5.196
  59.240	        28	    1200	     5.292
  59.320	        35	    1200	     5.916
  59.400	        26	    1200	     5.099
  59.480	        27	    1200	     5.196
  59.560	        15	    1200	     3.873
  59.640	        27	    1200	     5.196
  59.720	        23	    1200	     4.796
  59.800	        25	    1200	     5.000
  59.880	        24	    1200	     4.899
  59.960	        27	    1200	     5.196
  60.040	        21	    1200	     4.583
  60.120	        12	    1200	     3.464
  60.200	        21	    1200	     4.583
  60.280	        26	    1200	     5.099
  60.360	        20	    1200	     4.472
  60.440	        21	    1200	     4.583
  60.520	        16	    1200	     4.000
  60.600	        18	    1200	     4.243
  60.680	        16	    1200	     4.000
  60.760	        22	    1200	     4.690
  60.840	        11	    1200	     3.317
  60.920	        18	    1200	     4.243
  61.000	        20	    1200	     4.472
  61.080	        23	    1200	     4.796
  61.160	        17	    1200	     4.123
  61.240	        20	    1200	     4.472
  61.320	        17	    1200	     4.123
  61.400	        18	    1200	     4.243
  61.480	        14	    1200	     3.742
  61.560	        16	    1200	     4.000
  61.640	        12	    1200	     3.464
  61.720	        19	    1200	     4.359
  61.800	        20	    1200	     4.472
  61.880	        23	    1200	     4.796
  61.960	        23	    1200	     4.796
  62.040	        17	    1200	     4.123
  62.120	        19	    1200	     4.359
  62.200	        23	    1200	     4.796
  62.280	        19	    1200	     4.359
  62.360	        16	    1200	     4.000
  62.440	        17	    1200	     4.123
  62.520	        21	    1200	     4.583
  62.600	        20	    1200	     4.472
  62.680	        30	    1200	     5.477
  62.760	        30	    1200	     5.477
  62.840	        29	    1200	     5.385
  62.920	        25	    1200	     5.000
  63.000	        23	    1200	     4.796
  63.080	        31	    1200	     5.568
  63.160	        21	    1200	     4.583
  63.240	        23	    1200	     4.796
  63.320	        28	    1200	     5.292
  63.400	        25	    1200	     5.000
  63.480	        27	    1200	     5.196
  63.560	        31	    1200	     5.568
  63.640	        49	    1200	     7.000
  63.720	        44	    1200	     6.633
  63.800	        47	    1200	     6.856
  63.880	        45	    1200	     6.708
  63.960	        35	    1200	     5.916
  64.040	        45	    1200	     6.708
  64.120	        40	    1200	     6.325
  64.200	        21	    1200	     4.583
  64.280	        31	    1200	     5.568
  64.360	        27	    1200	     5.196
  64.440	        14	    1200	     3.742
  64.520	        28	    1200	     5.292
  64.600	        30	    1200	     5.477
  64.680	        24	    1200	     4.899
  64.760	        22	    1200	     4.690
  64.840	        20	    1200	     4.472
  64.920	        23	    1200	     4.796
  65.000	        26	    1200	     5.099
  65.080	        22	    1200	     4.690
  65.160	        18	    1200	     4.243
  65.240	        21	    1200	     4.583
  65.320	        29	    1200	     5.385
  65.400	        15	    1200	     3.873
  65.480	        16	    1200	     4.000
  65.560	        20	    1200	     4.472
  65.640	        47	    1200	     6.856
  65.720	        33	    1200	     5.745
  65.800	        45	    1200	     6.708
  65.880	        38	    1200	     6.164
  65.960	        42	    1200	     6.481
  66.040	        42	    1200	     6.481
  66.120	        23	    1200	     4.796
  66.200	        25	    1200	     5.000
  66.280	        25	    1200	     5.000
  66.360	        27	    1200	     5.196
  66.440	        24	    1200	     4.899
  66.520	        25	    1200	     5.000
  66.600	        27	    1200	     5.196
  66.680	        42	    1200	     6.481
  66.760	        34	    1200	     5.831
  66.840	        42	    1200	     6.481
  66.920	        60	    1200	     7.746
  67.000	        71	    1200	     8.426
  67.080	        84	    1200	     9.165
  67.160	       111	    1200	    10.536
  67.240	       120	    1200	    10.954
  67.320	       143	    1200	    11.958
  67.400	       169	    1200	    13.000
  67.480	       183	    1200	    13.528
  67.560	       197	    1200	    14.036
  67.640	       174	    1200	    13.191
  67.720	       154	    1200	    12.410
  67.800	       118	    1200	    10.863
  67.880	       104	    1200	    10.198
  67.960	        96	    1200	     9.798
  68.040	        61	    1200	     7.810
  68.120	        47	    1200	     6.856
  68.200	        35	    1200	     5.916
  68.280	        38	    1200	     6.164
  68.360	        33	    1200	     5.745
  68.440	        34	    1200	     5.831
  68.520	        32	    1200	     5.657
  68.600	        33	    1200	     5.745
  68.680	        24	    1200	     4.899
  68.760	        25	    1200	     5.000
  68.840	        19	    1200	     4.359
  68.920	        22	    1200	     4.690
  69.000	        20	    1200	     4.472
  69.080	        23	    1200	     4.796
  69.160	        22	    1200	     4.690
  69.240	        27	    1200	     5.196
  69.320	        20	    1200	     4.472
  69.400	        19	    1200	     4.359
  69.480	        17	    1200	     4.123
  69.560	        19	    1200	     4.359
  69.640	        13	    1200	     3.606
  69.720	        22	    1200	     4.690
  69.800	        10	    1200	     3.162
  69.880	        18	    1200	     4.243
  69.960	        11	    1200	     3.317
  70.040	        10	    1200	     3.162
  70.120	        14	    1200	     3.742
  70.200	        15	    1200	     3.873
  70.280	         8	    1200	     2.828
  70.360	         9	    1200	     3.000
  70.440	        10	    1200	     3.162
  70.520	        11	    1200	     3.317
  70.600	        15	    1200	     3.873
  70.680	        14	    1200	     3.742
  70.760	        11	    1200	     3.317
  70.840	        17	    1200	     4.123
  70.920	        10	    1200	     3.162
  71.000	        24	    1200	     4.899
  71.080	        16	    1200	     4.000
  71.160	        13	    1200	     3.606
  71.240	        19	    1200	     4.359
  71.320	        20	    1200	     4.472
  71.400	        27	    1200	     5.196
  71.480	        14	    1200	     3.742
  71.560	        18	    1200	     4.243
  71.640	        20	    1200	     4.472
  71.720	        18	    1200	     4.243
  71.800	        17	    1200	     4.123
  71.880	        20	    1200	     4.472
  71.960	        19	    1200	     4.359
  72.040	         9	    1200	     3.000
  72.120	        22	    1200	     4.690
  72.200	        23	    1200	     4.796
  72.280	        32	    1200	     5.657
  72.360	        33	    1200	     5.745
  72.440	        17	    1200	     4.123
  72.520	        18	    1200	     4.243
  72.600	        22	    1200	     4.690
  72.680	        11	    1200	     3.317
  72.760	        21	    1200	     4.583
  72.840	        18	    1200	     4.243
  72.920	        24	    1200	     4.899
  73.000	        18	    1200	     4.243
  73.080	        18	    1200	     4.243
  73.160	        24	    1200	     4.899
  73.240	        21	    1200	     4.583
  73.320	        23	    1200	     4.796
  73.400	        18	    1200	     4.243
  73.480	        15	    1200	     3.873
  73.560	        17	    1200	     4.123
  73.640	        15	    1200	     3.873
  73.720	        15	    1200	     3.873
  73.800	        18	    1200	     4.243
  73.880	        10	    1200	     3.162
  73.960	        14	    1200	     3.742
  74.040	        14	    1200	     3.742
  74.120	        19	    1200	     4.359
  74.200	         9	    1200	     3.000
  74.280	        20	    1200	     4.472
  74.360	        14	    1200	     3.742
  74.440	        14	    1200	     3.742
  74.520	        17	    1200	     4.123
  74.600	        21	    1200	     4.583
  74.680	        10	    1200	     3.162
  74.760	        18	    1200	     4.243
  74.840	        17	    1200	     4.123
  74.920	        14	    1200	     3.742
  75.000	        14	    1200	     3.742
  75.080	        15	    1200	     3.873
  75.160	         8	    1200	     2.828
  75.240	        23	    1200	     4.796
  75.320	        23	    1200	     4.796
  75.400	        20	    1200	     4.472
  75.480	        26	    1200	     5.099
  75.560	        23	    1200	     4.796
  75.640	        28	    1200	     5.292
  75.720	        26	    1200	     5.099
  75.800	        22	    1200	     4.690
  75.880	        33	    1200	     5.745
  75.960	        33	    1200	     5.745
  76.040	        54	    1200	     7.348
  76.120	        39	    1200	     6.245
  76.200	        41	    1200	     6.403
  76.280	        57	    1200	     7.550
  76.360	        58	    1200	     7.616
  76.440	        72	    1200	     8.485
  76.520	        78	    1200	     8.832
  76.600	       100	    1200	    10.000
  76.680	        98	    1200	     9.899
  76.760	       144	    1200	    12.000
  76.840	       153	    1200	    12.369
  76.920	       128	    1200	    11.314
  77.000	       103	    1200	    10.149
  77.080	        90	    1200	     9.487
  77.160	        83	    1200	     9.110
  77.240	        77	    1200	     8.775
  77.320	        52	    1200	     7.211
  77.400	        69	    1200	     8.307
  77.480	        56	    1200	     7.483
  77.560	        55	    1200	     7.416
  77.640	        51	    1200	     7.141
  77.720	        44	    1200	     6.633
  77.800	        45	    1200	     6.708
  77.880	        25	    1200	     5.000
  77.960	        32	    1200	     5.657
  78.040	        28	    1200	     5.292
  78.120	        21	    1200	     4.583
  78.200	        17	    1200	     4.123
  78.280	        12	    1200	     3.464
  78.360	        30	    1200	     5.477
  78.440	        16	    1200	     4.000
  78.520	        25	    1200	     5.000
  78.600	        19	    1200	     4.359
  78.680	        19	    1200	     4.359
  78.760	        28	    1200	     5.292
  78.840	        23	    1200	     4.796
  78.920	        20	    1200	     4.472
  79.000	        22	    1200	     4.690
  79.080	        20	    1200	     4.472
  79.160	         8	    1200	     2.828
  79.240	        17	    1200	     4.123
  79.320	        19	    1200	     4.359
  79.400	        17	    1200	     4.123
  79.480	        15	    1200	     3.873
  79.560	        26	    1200	     5.099
  79.640	        12	    1200	     3.464
  79.720	        18	    1200	     4.243
  79.800	        13	    1200	     3.606
  79.880	        15	    1200	     3.873
  79.960	        22	    1200	     4.690
  80.040	        29	    1200	     5.385
  80.120	        18	    1200	     4.243
  80.200	        15	    1200	     3.873
  80.280	        25	    1200	     5.000
  80.360	        28	    1200	     5.292
  80.440	        23	    1200	     4.796
  80.520	        21	    1200	     4.583
  80.600	        28	    1200	     5.292
  80.680	        23	    1200	     4.796
  80.760	        18	    1200	     4.243
  80.840	        27	    1200	     5.196
  80.920	        20	    1200	     4.472
  81.000	        38	    1200	     6.164
  81.080	        38	    1200	     6.164
  81.160	        38	    1200	     6.164
  81.240	        44	    1200	     6.633
  81.320	        40	    1200	     6.325
  81.400	        46	    1200	     6.782
  81.480	        49	    1200	     7.000
  81.560	        39	    1200	     6.245
  81.640	        44	    1200	     6.633
  81.720	        44	    1200	     6.633
  81.800	        48	    1200	     6.928
  81.880	        33	    1200	     5.745
  81.960	        52	    1200	     7.211
  82.040	        44	    1200	     6.633
  82.120	        40	    1200	     6.325
  82.200	        35	    1200	     5.916
  82.280	        33	    1200	     5.745
  82.360	        46	    1200	     6.782
  82.440	        52	    1200	     7.211
  82.520	        41	    1200	     6.403
  82.600	        31	    1200	     5.568
  82.680	        39	    1200	     6.245
  82.760	        46	    1200	     6.782
  82.840	        39	    1200	     6.245
  82.920	        27	    1200	     5.196
  83.000	        24	    1200	     4.899
  83.080	        22	    1200	     4.690
  83.160	        23	    1200	     4.796
  83.240	        20	    1200	     4.472
  83.320	        24	    1200	     4.899
  83.400	        17	    1200	     4.123
  83.480	         9	    1200	     3.000
  83.560	        26	    1200	     5.099
  83.640	        13	    1200	     3.606
  83.720	        15	    1200	     3.873
  83.800	        20	    1200	     4.472
  83.880	        14	    1200	     3.742
  83.960	        22	    1200	     4.690
  84.040	        16	    1200	     4.000
  84.120	        22	    1200	     4.690
  84.200	        13	    1200	     3.606
  84.280	        32	    1200	     5.657
  84.360	        27	    1200	     5.196
  84.440	        28	    1200	     5.292
  84.520	        28	    1200	     5.292
  84.600	        29	    1200	     5.385
  84.680	        17	    1200	     4.123
  84.760	        22	    1200	     4.690
  84.840	        19	    1200	     4.359
  84.920	        22	    1200	     4.690
  85.000	        29	    1200	     5.385
  85.080	        21	    1200	     4.583
  85.160	        18	    1200	     4.243
  85.240	        27	    1200	     5.196
  85.320	        20	    1200	     4.472
  85.400	        30	    1200	     5.477
  85.480	        44	    1200	     6.633
  85.560	        39	    1200	     6.245
  85.640	        36	    1200	     6.000
  85.720	        51	    1200	     7.141
  85.800	        65	    1200	     8.062
  85.880	        57	    1200	     7.550
  85.960	        70	    1200	     8.367
  86.040	        49	    1200	     7.000
  86.120	        51	    1200	     7.141
  86.200	        37	    1200	     6.083
  86.280	        40	    1200	     6.325
  86.360	        33	    1200	     5.745
  86.440	        26	    1200	     5.099
  86.520	        23	    1200	     4.796
  86.600	        17	    1200	     4.123
  86.680	        16	    1200	     4.000
  86.760	        19	    1200	     4.359
  86.840	        24	    1200	     4.899
  86.920	        18	    1200	     4.243
  87.000	        17	    1200	     4.123
  87.080	        19	    1200	     4.359
  87.160	        19	    1200	     4.359
  87.240	        21	    1200	     4.583
  87.320	        15	    1200	     3.873
  87.400	        20	    1200	     4.472
  87.480	        21	    1200	     4.583
  87.560	        22	    1200	     4.690
  87.640	        19	    1200	     4.359
  87.720	        18	    1200	     4.243
  87.800	        15	    1200	     3.873
  87.880	        24	    1200	     4.899
  87.960	        16	    1200	     4.000
  88.040	        18	    1200	     4.243
  88.120	        16	    1200	     4.000
  88.200	        26	    1200	     5.099
  88.280	        21	    1200	     4.583
  88.360	        23	    1200	     4.796
  88.440	        17	    1200	     4.123
  88.520	        20	    1200	     4.472
  88.600	        15	    1200	     3.873
  88.680	        16	    1200	     4.000
  88.760	        15	    1200	     3.873
  88.840	        13	    1200	     3.606
  88.920	        21	    1200	     4.583
  89.000	        17	    1200	     4.123
  89.080	        19	    1200	     4.359
  89.160	        16	    1200	     4.000
  89.240	        17	    1200	     4.123
  89.320	        19	    1200	     4.359
  89.400	        13	    1200	     3.606
  89.480	        22	    1200	     4.690
  89.560	        16	    1200	     4.000
  89.640	        20	    1200	     4.472
  89.720	        13	    1200	     3.606
  89.800	        22	    1200	     4.690
  89.880	        19	    1200	     4.359
  89.960	        24	    1200	     4.899
  90.000	        19	    1200	     4.359